"success","trial_type","trial_index","time_elapsed","internal_node_id","protocol_sum","subject_identifier","subject_sum","rt","stimulus","response","direction","screen_duration","acceleration","start_time","initial_speed","final_speed","correct_response","correct","key_response","ball_start_time","ball_end_time","key_press_time","rt_from_ball","practice","extreme","subject_id","study_id","session_id","right_bias","left_bias"
"true","fullscreen","0","13611","0.0-0.0","823001ca7d6037a3302a9cadde54da9fd49a54ab620298cfc635c727833ca50d","360252","[246,66,183,252,80,175,73,210,109,225,135,9,209,155,44,122,252,99,89,169,27,137,55,3,3,133,82,196,4,193,43,149]","","","","","","","","","","","","","","","","","","","","","","",""
"","html-keyboard-response","1","37595","0.0-1.0","823001ca7d6037a3302a9cadde54da9fd49a54ab620298cfc635c727833ca50d","360252","[246,66,183,252,80,175,73,210,109,225,135,9,209,155,44,122,252,99,89,169,27,137,55,3,3,133,82,196,4,193,43,149]","23979","
            <p style=""text-align:left;"">In this study you will see a ball travelling across the screen.</p>
            <p style=""text-align:left;"">The ball will be either accelerating (getting faster) or decelerating (getting slower).</p>
            <p style=""text-align:left;"">Your task is to decide whether the ball is accelerating or decelerating.</p>
            <p style=""text-align:left;"">If the ball is accelerating press the A key.</p>
            <p style=""text-align:left;"">If the ball is decelerating press the D key.</p>
            <p style=""text-align:left;"">You can only respond once the ball has left the screen.</p>
            <p style=""text-align:left;"">You will now have an opportunity to practise, we will give you 8 trials and tell you if you are correct.</p>
            <p style=""text-align:left;"">Press the A key to start practising.</p>
            ","a","","","","","","","","","","","","","","","","","","","",""
"","moving-image","2","42076","0.0-2.0-0.0","823001ca7d6037a3302a9cadde54da9fd49a54ab620298cfc635c727833ca50d","360252","[246,66,183,252,80,175,73,210,109,225,135,9,209,155,44,122,252,99,89,169,27,137,55,3,3,133,82,196,4,193,43,149]","2865","","","LEFT","1500","1.4","1000","1.8833333333333337","3.9833333333333334","a","false","d","1016","2508","2864","356","true","false","61031f137855ff378d67c2fc","653902af85e25554703e03b0","653910170ff47022d6a7977f","Positive","Negative"
"","moving-image","3","45949","0.0-2.1-0.1","823001ca7d6037a3302a9cadde54da9fd49a54ab620298cfc635c727833ca50d","360252","[246,66,183,252,80,175,73,210,109,225,135,9,209,155,44,122,252,99,89,169,27,137,55,3,3,133,82,196,4,193,43,149]","2367","","","RIGHT","1000","8","1000","0.40000000000000036","8.4","a","true","a","1010","2005","2366","361","true","true","61031f137855ff378d67c2fc","653902af85e25554703e03b0","653910170ff47022d6a7977f","Positive","Negative"
"","moving-image","4","50701","0.0-2.2-0.2","823001ca7d6037a3302a9cadde54da9fd49a54ab620298cfc635c727833ca50d","360252","[246,66,183,252,80,175,73,210,109,225,135,9,209,155,44,122,252,99,89,169,27,137,55,3,3,133,82,196,4,193,43,149]","3234","","","RIGHT","1500","3.54","1000","0.2783333333333333","5.588333333333334","a","false","d","1014","2498","3234","736","true","false","61031f137855ff378d67c2fc","653902af85e25554703e03b0","653910170ff47022d6a7977f","Positive","Negative"
"","moving-image","5","55193","0.0-2.3-0.3","823001ca7d6037a3302a9cadde54da9fd49a54ab620298cfc635c727833ca50d","360252","[246,66,183,252,80,175,73,210,109,225,135,9,209,155,44,122,252,99,89,169,27,137,55,3,3,133,82,196,4,193,43,149]","2979","","","RIGHT","1500","-1.4","1000","3.9833333333333334","1.8833333333333337","d","true","d","1010","2490","2980","490","true","false","61031f137855ff378d67c2fc","653902af85e25554703e03b0","653910170ff47022d6a7977f","Positive","Negative"
"","moving-image","6","60263","0.0-2.4-0.4","823001ca7d6037a3302a9cadde54da9fd49a54ab620298cfc635c727833ca50d","360252","[246,66,183,252,80,175,73,210,109,225,135,9,209,155,44,122,252,99,89,169,27,137,55,3,3,133,82,196,4,193,43,149]","3540","","","LEFT","1500","-3.54","1000","5.588333333333334","0.2783333333333333","d","false","a","1014","2454","3540","1086","true","false","61031f137855ff378d67c2fc","653902af85e25554703e03b0","653910170ff47022d6a7977f","Positive","Negative"
"","moving-image","7","64597","0.0-2.5-0.5","823001ca7d6037a3302a9cadde54da9fd49a54ab620298cfc635c727833ca50d","360252","[246,66,183,252,80,175,73,210,109,225,135,9,209,155,44,122,252,99,89,169,27,137,55,3,3,133,82,196,4,193,43,149]","2816","","","LEFT","1000","1.6","1000","3.6000000000000005","5.2","a","true","a","1010","2005","2816","811","true","false","61031f137855ff378d67c2fc","653902af85e25554703e03b0","653910170ff47022d6a7977f","Positive","Negative"
"","moving-image","8","68500","0.0-2.6-0.6","823001ca7d6037a3302a9cadde54da9fd49a54ab620298cfc635c727833ca50d","360252","[246,66,183,252,80,175,73,210,109,225,135,9,209,155,44,122,252,99,89,169,27,137,55,3,3,133,82,196,4,193,43,149]","2381","","","RIGHT","1000","-1.6","1000","5.2","3.6000000000000005","d","false","a","1009","2002","2380","378","true","false","61031f137855ff378d67c2fc","653902af85e25554703e03b0","653910170ff47022d6a7977f","Positive","Negative"
"","moving-image","9","72464","0.0-2.7-0.7","823001ca7d6037a3302a9cadde54da9fd49a54ab620298cfc635c727833ca50d","360252","[246,66,183,252,80,175,73,210,109,225,135,9,209,155,44,122,252,99,89,169,27,137,55,3,3,133,82,196,4,193,43,149]","2431","","","LEFT","1000","-8","1000","8.4","0.40000000000000036","d","false","a","1015","1964","2432","468","true","true","61031f137855ff378d67c2fc","653902af85e25554703e03b0","653910170ff47022d6a7977f","Positive","Negative"
"","html-keyboard-response","10","92262","0.0-3.0","823001ca7d6037a3302a9cadde54da9fd49a54ab620298cfc635c727833ca50d","360252","[246,66,183,252,80,175,73,210,109,225,135,9,209,155,44,122,252,99,89,169,27,137,55,3,3,133,82,196,4,193,43,149]","19793","
            <p style=""text-align:left;"">You are now ready to start the real experiment</p>
            <p style=""text-align:left;"">You will no longer get feedback but otherwise the task is exactly the same.</p>
            <p style=""text-align:left;"">Remember:</p>
            <p style=""text-align:left;"">If the ball is accelerating press the A key.</p>
            <p style=""text-align:left;"">If the ball is decelerating press the D key.</p>
            <p style=""text-align:left;"">This study consists of 4 blocks of 27 trials.</p>
            <p style=""text-align:left;"">Press the A key to start.</p>
            ","a","","","","","","","","","","","","","","","","","","","",""
"","moving-image","11","98869","0.0-4.0-0.0-0.0","823001ca7d6037a3302a9cadde54da9fd49a54ab620298cfc635c727833ca50d","360252","[246,66,183,252,80,175,73,210,109,225,135,9,209,155,44,122,252,99,89,169,27,137,55,3,3,133,82,196,4,193,43,149]","6083","","","LEFT","1000","-8","1000","8.4","0.40000000000000036","d","false","a","1002","1971","6082","4111","false","true","61031f137855ff378d67c2fc","653902af85e25554703e03b0","653910170ff47022d6a7977f","Positive","Negative"
"","moving-image","12","101895","0.0-4.0-0.1-0.1","823001ca7d6037a3302a9cadde54da9fd49a54ab620298cfc635c727833ca50d","360252","[246,66,183,252,80,175,73,210,109,225,135,9,209,155,44,122,252,99,89,169,27,137,55,3,3,133,82,196,4,193,43,149]","2512","","","LEFT","1500","0","1000","2.9333333333333336","2.9333333333333336","NaN","NaN","d","1010","2508","2512","4","false","false","61031f137855ff378d67c2fc","653902af85e25554703e03b0","653910170ff47022d6a7977f","Positive","Negative"
"","moving-image","13","104508","0.0-4.0-0.2-0.2","823001ca7d6037a3302a9cadde54da9fd49a54ab620298cfc635c727833ca50d","360252","[246,66,183,252,80,175,73,210,109,225,135,9,209,155,44,122,252,99,89,169,27,137,55,3,3,133,82,196,4,193,43,149]","2103","","","LEFT","1000","-8","1000","8.4","0.40000000000000036","d","false","a","1009","1967","2103","136","false","true","61031f137855ff378d67c2fc","653902af85e25554703e03b0","653910170ff47022d6a7977f","Positive","Negative"
"","moving-image","14","107527","0.0-4.0-0.3-0.3","823001ca7d6037a3302a9cadde54da9fd49a54ab620298cfc635c727833ca50d","360252","[246,66,183,252,80,175,73,210,109,225,135,9,209,155,44,122,252,99,89,169,27,137,55,3,3,133,82,196,4,193,43,149]","2505","","","LEFT","1500","-2.8","1000","5.033333333333333","0.8333333333333339","d","true","d","1005","2484","2505","21","false","false","61031f137855ff378d67c2fc","653902af85e25554703e03b0","653910170ff47022d6a7977f","Positive","Negative"
"","moving-image","15","110495","0.0-4.0-0.4-0.4","823001ca7d6037a3302a9cadde54da9fd49a54ab620298cfc635c727833ca50d","360252","[246,66,183,252,80,175,73,210,109,225,135,9,209,155,44,122,252,99,89,169,27,137,55,3,3,133,82,196,4,193,43,149]","2455","","","RIGHT","1000","8","1000","0.40000000000000036","8.4","a","true","a","1005","2001","2454","453","false","true","61031f137855ff378d67c2fc","653902af85e25554703e03b0","653910170ff47022d6a7977f","Positive","Negative"
"","moving-image","16","113776","0.0-4.0-0.5-0.5","823001ca7d6037a3302a9cadde54da9fd49a54ab620298cfc635c727833ca50d","360252","[246,66,183,252,80,175,73,210,109,225,135,9,209,155,44,122,252,99,89,169,27,137,55,3,3,133,82,196,4,193,43,149]","2778","","","RIGHT","1500","0","1000","2.9333333333333336","2.9333333333333336","NaN","NaN","d","1005","2505","2778","273","false","false","61031f137855ff378d67c2fc","653902af85e25554703e03b0","653910170ff47022d6a7977f","Positive","Negative"
"","moving-image","17","116652","0.0-4.0-0.6-0.6","823001ca7d6037a3302a9cadde54da9fd49a54ab620298cfc635c727833ca50d","360252","[246,66,183,252,80,175,73,210,109,225,135,9,209,155,44,122,252,99,89,169,27,137,55,3,3,133,82,196,4,193,43,149]","2365","","","RIGHT","1000","8","1000","0.40000000000000036","8.4","a","true","a","1000","2013","2364","351","false","true","61031f137855ff378d67c2fc","653902af85e25554703e03b0","653910170ff47022d6a7977f","Positive","Negative"
"","moving-image","18","120649","0.0-4.0-0.7-0.7","823001ca7d6037a3302a9cadde54da9fd49a54ab620298cfc635c727833ca50d","360252","[246,66,183,252,80,175,73,210,109,225,135,9,209,155,44,122,252,99,89,169,27,137,55,3,3,133,82,196,4,193,43,149]","3487","","","RIGHT","1500","0","1000","2.9333333333333336","2.9333333333333336","NaN","NaN","a","2316","2500","3487","987","false","false","61031f137855ff378d67c2fc","653902af85e25554703e03b0","653910170ff47022d6a7977f","Positive","Negative"
"","moving-image","19","123782","0.0-4.0-0.8-0.8","823001ca7d6037a3302a9cadde54da9fd49a54ab620298cfc635c727833ca50d","360252","[246,66,183,252,80,175,73,210,109,225,135,9,209,155,44,122,252,99,89,169,27,137,55,3,3,133,82,196,4,193,43,149]","2629","","","LEFT","1000","-8","1000","8.4","0.40000000000000036","d","false","a","1012","1978","2629","651","false","true","61031f137855ff378d67c2fc","653902af85e25554703e03b0","653910170ff47022d6a7977f","Positive","Negative"
"","moving-image","20","126609","0.0-4.0-0.9-0.9","823001ca7d6037a3302a9cadde54da9fd49a54ab620298cfc635c727833ca50d","360252","[246,66,183,252,80,175,73,210,109,225,135,9,209,155,44,122,252,99,89,169,27,137,55,3,3,133,82,196,4,193,43,149]","2324","","","RIGHT","1000","8","1000","0.40000000000000036","8.4","a","false","d","1009","2001","2324","323","false","true","61031f137855ff378d67c2fc","653902af85e25554703e03b0","653910170ff47022d6a7977f","Positive","Negative"
"","moving-image","21","129862","0.0-4.0-0.10-0.10","823001ca7d6037a3302a9cadde54da9fd49a54ab620298cfc635c727833ca50d","360252","[246,66,183,252,80,175,73,210,109,225,135,9,209,155,44,122,252,99,89,169,27,137,55,3,3,133,82,196,4,193,43,149]","2734","","","RIGHT","1500","2.8","1000","0.8333333333333339","5.033333333333333","a","false","d","1006","2500","2735","235","false","false","61031f137855ff378d67c2fc","653902af85e25554703e03b0","653910170ff47022d6a7977f","Positive","Negative"
"","moving-image","22","133092","0.0-4.0-0.11-0.11","823001ca7d6037a3302a9cadde54da9fd49a54ab620298cfc635c727833ca50d","360252","[246,66,183,252,80,175,73,210,109,225,135,9,209,155,44,122,252,99,89,169,27,137,55,3,3,133,82,196,4,193,43,149]","2717","","","RIGHT","1500","-2.1","1000","4.508333333333334","1.3583333333333334","d","false","a","1009","2495","2719","224","false","false","61031f137855ff378d67c2fc","653902af85e25554703e03b0","653910170ff47022d6a7977f","Positive","Negative"
"","moving-image","23","140750","0.0-4.0-0.12-0.12","823001ca7d6037a3302a9cadde54da9fd49a54ab620298cfc635c727833ca50d","360252","[246,66,183,252,80,175,73,210,109,225,135,9,209,155,44,122,252,99,89,169,27,137,55,3,3,133,82,196,4,193,43,149]","7146","","","LEFT","1500","2.1","1000","1.3583333333333334","4.508333333333334","a","true","a","2491","2497","7147","4650","false","false","61031f137855ff378d67c2fc","653902af85e25554703e03b0","653910170ff47022d6a7977f","Positive","Negative"
"","moving-image","24","143998","0.0-4.0-0.13-0.13","823001ca7d6037a3302a9cadde54da9fd49a54ab620298cfc635c727833ca50d","360252","[246,66,183,252,80,175,73,210,109,225,135,9,209,155,44,122,252,99,89,169,27,137,55,3,3,133,82,196,4,193,43,149]","2733","","","RIGHT","1500","1.4","1000","1.8833333333333337","3.9833333333333334","a","false","d","1003","2499","2732","233","false","false","61031f137855ff378d67c2fc","653902af85e25554703e03b0","653910170ff47022d6a7977f","Positive","Negative"
"","moving-image","25","147195","0.0-4.0-0.14-0.14","823001ca7d6037a3302a9cadde54da9fd49a54ab620298cfc635c727833ca50d","360252","[246,66,183,252,80,175,73,210,109,225,135,9,209,155,44,122,252,99,89,169,27,137,55,3,3,133,82,196,4,193,43,149]","2672","","","LEFT","1500","-0.7","1000","3.4583333333333335","2.4083333333333337","d","true","d","1003","2497","2672","175","false","false","61031f137855ff378d67c2fc","653902af85e25554703e03b0","653910170ff47022d6a7977f","Positive","Negative"
"","moving-image","26","150028","0.0-4.0-0.15-0.15","823001ca7d6037a3302a9cadde54da9fd49a54ab620298cfc635c727833ca50d","360252","[246,66,183,252,80,175,73,210,109,225,135,9,209,155,44,122,252,99,89,169,27,137,55,3,3,133,82,196,4,193,43,149]","2315","","","RIGHT","1000","3.2","1000","2.8000000000000003","6","a","true","a","1010","1999","2315","316","false","false","61031f137855ff378d67c2fc","653902af85e25554703e03b0","653910170ff47022d6a7977f","Positive","Negative"
"","moving-image","27","156975","0.0-4.0-0.16-0.16","823001ca7d6037a3302a9cadde54da9fd49a54ab620298cfc635c727833ca50d","360252","[246,66,183,252,80,175,73,210,109,225,135,9,209,155,44,122,252,99,89,169,27,137,55,3,3,133,82,196,4,193,43,149]","6443","","","RIGHT","1500","2.1","1000","1.3583333333333334","4.508333333333334","a","false","d","1012","2497","6443","3946","false","false","61031f137855ff378d67c2fc","653902af85e25554703e03b0","653910170ff47022d6a7977f","Positive","Negative"
"","moving-image","28","160209","0.0-4.0-0.17-0.17","823001ca7d6037a3302a9cadde54da9fd49a54ab620298cfc635c727833ca50d","360252","[246,66,183,252,80,175,73,210,109,225,135,9,209,155,44,122,252,99,89,169,27,137,55,3,3,133,82,196,4,193,43,149]","2718","","","RIGHT","1500","2.8","1000","0.8333333333333339","5.033333333333333","a","false","d","1012","2499","2717","218","false","false","61031f137855ff378d67c2fc","653902af85e25554703e03b0","653910170ff47022d6a7977f","Positive","Negative"
"","moving-image","29","162838","0.0-4.0-0.18-0.18","823001ca7d6037a3302a9cadde54da9fd49a54ab620298cfc635c727833ca50d","360252","[246,66,183,252,80,175,73,210,109,225,135,9,209,155,44,122,252,99,89,169,27,137,55,3,3,133,82,196,4,193,43,149]","2114","","","LEFT","1000","-3.2","1000","6","2.8000000000000003","d","false","a","1012","2000","2114","114","false","false","61031f137855ff378d67c2fc","653902af85e25554703e03b0","653910170ff47022d6a7977f","Positive","Negative"
"","moving-image","30","166211","0.0-4.0-0.19-0.19","823001ca7d6037a3302a9cadde54da9fd49a54ab620298cfc635c727833ca50d","360252","[246,66,183,252,80,175,73,210,109,225,135,9,209,155,44,122,252,99,89,169,27,137,55,3,3,133,82,196,4,193,43,149]","2863","","","LEFT","1500","-2.8","1000","5.033333333333333","0.8333333333333339","d","false","a","1006","2483","2864","381","false","false","61031f137855ff378d67c2fc","653902af85e25554703e03b0","653910170ff47022d6a7977f","Positive","Negative"
"","moving-image","31","168805","0.0-4.0-0.20-0.20","823001ca7d6037a3302a9cadde54da9fd49a54ab620298cfc635c727833ca50d","360252","[246,66,183,252,80,175,73,210,109,225,135,9,209,155,44,122,252,99,89,169,27,137,55,3,3,133,82,196,4,193,43,149]","2084","","","RIGHT","1000","-1.06666","1000","4.933330000000001","3.8666700000000005","d","false","a","1010","2010","2084","74","false","false","61031f137855ff378d67c2fc","653902af85e25554703e03b0","653910170ff47022d6a7977f","Positive","Negative"
"","moving-image","32","171478","0.0-4.0-0.21-0.21","823001ca7d6037a3302a9cadde54da9fd49a54ab620298cfc635c727833ca50d","360252","[246,66,183,252,80,175,73,210,109,225,135,9,209,155,44,122,252,99,89,169,27,137,55,3,3,133,82,196,4,193,43,149]","2156","","","RIGHT","1000","4.8","1000","2.0000000000000004","6.800000000000001","a","false","d","1006","2001","2157","156","false","false","61031f137855ff378d67c2fc","653902af85e25554703e03b0","653910170ff47022d6a7977f","Positive","Negative"
"","moving-image","33","175522","0.0-4.0-0.22-0.22","823001ca7d6037a3302a9cadde54da9fd49a54ab620298cfc635c727833ca50d","360252","[246,66,183,252,80,175,73,210,109,225,135,9,209,155,44,122,252,99,89,169,27,137,55,3,3,133,82,196,4,193,43,149]","3524","","","RIGHT","1500","2.1","1000","1.3583333333333334","4.508333333333334","a","false","d","1021","2508","3523","1015","false","false","61031f137855ff378d67c2fc","653902af85e25554703e03b0","653910170ff47022d6a7977f","Positive","Negative"
"","moving-image","34","179004","0.0-4.0-0.23-0.23","823001ca7d6037a3302a9cadde54da9fd49a54ab620298cfc635c727833ca50d","360252","[246,66,183,252,80,175,73,210,109,225,135,9,209,155,44,122,252,99,89,169,27,137,55,3,3,133,82,196,4,193,43,149]","2969","","","LEFT","1500","-0.7","1000","3.4583333333333335","2.4083333333333337","d","true","d","1002","2495","2969","474","false","false","61031f137855ff378d67c2fc","653902af85e25554703e03b0","653910170ff47022d6a7977f","Positive","Negative"
"","moving-image","35","182209","0.0-4.0-0.24-0.24","823001ca7d6037a3302a9cadde54da9fd49a54ab620298cfc635c727833ca50d","360252","[246,66,183,252,80,175,73,210,109,225,135,9,209,155,44,122,252,99,89,169,27,137,55,3,3,133,82,196,4,193,43,149]","2687","","","LEFT","1000","-1.6","1000","5.2","3.6000000000000005","d","false","a","1001","2006","2689","683","false","false","61031f137855ff378d67c2fc","653902af85e25554703e03b0","653910170ff47022d6a7977f","Positive","Negative"
"","moving-image","36","188322","0.0-4.0-0.25-0.25","823001ca7d6037a3302a9cadde54da9fd49a54ab620298cfc635c727833ca50d","360252","[246,66,183,252,80,175,73,210,109,225,135,9,209,155,44,122,252,99,89,169,27,137,55,3,3,133,82,196,4,193,43,149]","5608","","","LEFT","1000","0","1000","4.4","4.4","NaN","NaN","a","1012","2011","5608","3597","false","false","61031f137855ff378d67c2fc","653902af85e25554703e03b0","653910170ff47022d6a7977f","Positive","Negative"
"","moving-image","37","191043","0.0-4.0-0.26-0.26","823001ca7d6037a3302a9cadde54da9fd49a54ab620298cfc635c727833ca50d","360252","[246,66,183,252,80,175,73,210,109,225,135,9,209,155,44,122,252,99,89,169,27,137,55,3,3,133,82,196,4,193,43,149]","2206","","","LEFT","1000","1.6","1000","3.6000000000000005","5.2","a","false","d","1011","2004","2204","200","false","false","61031f137855ff378d67c2fc","653902af85e25554703e03b0","653910170ff47022d6a7977f","Positive","Negative"
"","html-keyboard-response","38","200433","0.0-4.0-1.0","823001ca7d6037a3302a9cadde54da9fd49a54ab620298cfc635c727833ca50d","360252","[246,66,183,252,80,175,73,210,109,225,135,9,209,155,44,122,252,99,89,169,27,137,55,3,3,133,82,196,4,193,43,149]","9385","<p style=""text-align:left;"">You have completed 1 blocks out of 4.</p>
                <p style=""text-align:left;"">Take a short break if you need and press A to continue.</p>","a","","","","","","","","","","","","","","","","","","","",""
"","moving-image","39","209376","0.0-4.1-0.27-0.27","823001ca7d6037a3302a9cadde54da9fd49a54ab620298cfc635c727833ca50d","360252","[246,66,183,252,80,175,73,210,109,225,135,9,209,155,44,122,252,99,89,169,27,137,55,3,3,133,82,196,4,193,43,149]","8431","","","LEFT","1000","-6.4","1000","7.6000000000000005","1.2000000000000002","d","false","a","1002","1987","8434","6447","false","false","61031f137855ff378d67c2fc","653902af85e25554703e03b0","653910170ff47022d6a7977f","Positive","Negative"
"","moving-image","40","212655","0.0-4.1-0.28-0.28","823001ca7d6037a3302a9cadde54da9fd49a54ab620298cfc635c727833ca50d","360252","[246,66,183,252,80,175,73,210,109,225,135,9,209,155,44,122,252,99,89,169,27,137,55,3,3,133,82,196,4,193,43,149]","2766","","","RIGHT","1500","2.1","1000","1.3583333333333334","4.508333333333334","a","false","d","1001","2496","2766","270","false","false","61031f137855ff378d67c2fc","653902af85e25554703e03b0","653910170ff47022d6a7977f","Positive","Negative"
"","moving-image","41","215521","0.0-4.1-0.29-0.29","823001ca7d6037a3302a9cadde54da9fd49a54ab620298cfc635c727833ca50d","360252","[246,66,183,252,80,175,73,210,109,225,135,9,209,155,44,122,252,99,89,169,27,137,55,3,3,133,82,196,4,193,43,149]","2349","","","LEFT","1000","-3.2","1000","6","2.8000000000000003","d","false","a","1015","2000","2350","350","false","false","61031f137855ff378d67c2fc","653902af85e25554703e03b0","653910170ff47022d6a7977f","Positive","Negative"
"","moving-image","42","221605","0.0-4.1-0.30-0.30","823001ca7d6037a3302a9cadde54da9fd49a54ab620298cfc635c727833ca50d","360252","[246,66,183,252,80,175,73,210,109,225,135,9,209,155,44,122,252,99,89,169,27,137,55,3,3,133,82,196,4,193,43,149]","5566","","","LEFT","1500","-2.1","1000","4.508333333333334","1.3583333333333334","d","true","d","1013","2494","5568","3074","false","false","61031f137855ff378d67c2fc","653902af85e25554703e03b0","653910170ff47022d6a7977f","Positive","Negative"
"","moving-image","43","225088","0.0-4.1-0.31-0.31","823001ca7d6037a3302a9cadde54da9fd49a54ab620298cfc635c727833ca50d","360252","[246,66,183,252,80,175,73,210,109,225,135,9,209,155,44,122,252,99,89,169,27,137,55,3,3,133,82,196,4,193,43,149]","2966","","","LEFT","1500","2.8","1000","0.8333333333333339","5.033333333333333","a","false","d","1003","2499","2966","467","false","false","61031f137855ff378d67c2fc","653902af85e25554703e03b0","653910170ff47022d6a7977f","Positive","Negative"
"","moving-image","44","232080","0.0-4.1-0.32-0.32","823001ca7d6037a3302a9cadde54da9fd49a54ab620298cfc635c727833ca50d","360252","[246,66,183,252,80,175,73,210,109,225,135,9,209,155,44,122,252,99,89,169,27,137,55,3,3,133,82,196,4,193,43,149]","6480","","","LEFT","1500","-2.8","1000","5.033333333333333","0.8333333333333339","d","true","d","1010","2490","6479","3989","false","false","61031f137855ff378d67c2fc","653902af85e25554703e03b0","653910170ff47022d6a7977f","Positive","Negative"
"","moving-image","45","235241","0.0-4.1-0.33-0.33","823001ca7d6037a3302a9cadde54da9fd49a54ab620298cfc635c727833ca50d","360252","[246,66,183,252,80,175,73,210,109,225,135,9,209,155,44,122,252,99,89,169,27,137,55,3,3,133,82,196,4,193,43,149]","2637","","","LEFT","1500","-2.1","1000","4.508333333333334","1.3583333333333334","d","true","d","1001","2493","2636","143","false","false","61031f137855ff378d67c2fc","653902af85e25554703e03b0","653910170ff47022d6a7977f","Positive","Negative"
"","moving-image","46","238055","0.0-4.1-0.34-0.34","823001ca7d6037a3302a9cadde54da9fd49a54ab620298cfc635c727833ca50d","360252","[246,66,183,252,80,175,73,210,109,225,135,9,209,155,44,122,252,99,89,169,27,137,55,3,3,133,82,196,4,193,43,149]","2255","","","LEFT","1000","-3.2","1000","6","2.8000000000000003","d","false","a","1004","2000","2255","255","false","false","61031f137855ff378d67c2fc","653902af85e25554703e03b0","653910170ff47022d6a7977f","Positive","Negative"
"","moving-image","47","245103","0.0-4.1-0.35-0.35","823001ca7d6037a3302a9cadde54da9fd49a54ab620298cfc635c727833ca50d","360252","[246,66,183,252,80,175,73,210,109,225,135,9,209,155,44,122,252,99,89,169,27,137,55,3,3,133,82,196,4,193,43,149]","6535","","","LEFT","1500","-3.54","1000","5.588333333333334","0.2783333333333333","d","false","a","1002","2451","6534","4083","false","false","61031f137855ff378d67c2fc","653902af85e25554703e03b0","653910170ff47022d6a7977f","Positive","Negative"
"","moving-image","48","247723","0.0-4.1-0.36-0.36","823001ca7d6037a3302a9cadde54da9fd49a54ab620298cfc635c727833ca50d","360252","[246,66,183,252,80,175,73,210,109,225,135,9,209,155,44,122,252,99,89,169,27,137,55,3,3,133,82,196,4,193,43,149]","2112","","","RIGHT","1000","3.2","1000","2.8000000000000003","6","a","false","d","1004","1997","2112","115","false","false","61031f137855ff378d67c2fc","653902af85e25554703e03b0","653910170ff47022d6a7977f","Positive","Negative"
"","moving-image","49","254128","0.0-4.1-0.37-0.37","823001ca7d6037a3302a9cadde54da9fd49a54ab620298cfc635c727833ca50d","360252","[246,66,183,252,80,175,73,210,109,225,135,9,209,155,44,122,252,99,89,169,27,137,55,3,3,133,82,196,4,193,43,149]","5898","","","LEFT","1500","-1.4","1000","3.9833333333333334","1.8833333333333337","d","true","d","1009","2490","5899","3409","false","false","61031f137855ff378d67c2fc","653902af85e25554703e03b0","653910170ff47022d6a7977f","Positive","Negative"
"","moving-image","50","257484","0.0-4.1-0.38-0.38","823001ca7d6037a3302a9cadde54da9fd49a54ab620298cfc635c727833ca50d","360252","[246,66,183,252,80,175,73,210,109,225,135,9,209,155,44,122,252,99,89,169,27,137,55,3,3,133,82,196,4,193,43,149]","2836","","","LEFT","1500","-1.4","1000","3.9833333333333334","1.8833333333333337","d","true","d","1013","2502","2836","334","false","false","61031f137855ff378d67c2fc","653902af85e25554703e03b0","653910170ff47022d6a7977f","Positive","Negative"
"","moving-image","51","260985","0.0-4.1-0.39-0.39","823001ca7d6037a3302a9cadde54da9fd49a54ab620298cfc635c727833ca50d","360252","[246,66,183,252,80,175,73,210,109,225,135,9,209,155,44,122,252,99,89,169,27,137,55,3,3,133,82,196,4,193,43,149]","2985","","","LEFT","1500","0.7","1000","2.4083333333333337","3.4583333333333335","a","false","d","1004","2501","2984","483","false","false","61031f137855ff378d67c2fc","653902af85e25554703e03b0","653910170ff47022d6a7977f","Positive","Negative"
"","moving-image","52","264602","0.0-4.1-0.40-0.40","823001ca7d6037a3302a9cadde54da9fd49a54ab620298cfc635c727833ca50d","360252","[246,66,183,252,80,175,73,210,109,225,135,9,209,155,44,122,252,99,89,169,27,137,55,3,3,133,82,196,4,193,43,149]","3099","","","RIGHT","1500","0.7","1000","2.4083333333333337","3.4583333333333335","a","false","d","1000","2509","3098","589","false","false","61031f137855ff378d67c2fc","653902af85e25554703e03b0","653910170ff47022d6a7977f","Positive","Negative"
"","moving-image","53","267352","0.0-4.1-0.41-0.41","823001ca7d6037a3302a9cadde54da9fd49a54ab620298cfc635c727833ca50d","360252","[246,66,183,252,80,175,73,210,109,225,135,9,209,155,44,122,252,99,89,169,27,137,55,3,3,133,82,196,4,193,43,149]","2227","","","LEFT","1000","-1.6","1000","5.2","3.6000000000000005","d","false","a","1001","1997","2228","231","false","false","61031f137855ff378d67c2fc","653902af85e25554703e03b0","653910170ff47022d6a7977f","Positive","Negative"
"","moving-image","54","272666","0.0-4.1-0.42-0.42","823001ca7d6037a3302a9cadde54da9fd49a54ab620298cfc635c727833ca50d","360252","[246,66,183,252,80,175,73,210,109,225,135,9,209,155,44,122,252,99,89,169,27,137,55,3,3,133,82,196,4,193,43,149]","4792","","","LEFT","1500","-2.8","1000","5.033333333333333","0.8333333333333339","d","false","a","1016","2479","4793","2314","false","false","61031f137855ff378d67c2fc","653902af85e25554703e03b0","653910170ff47022d6a7977f","Positive","Negative"
"","moving-image","55","275789","0.0-4.1-0.43-0.43","823001ca7d6037a3302a9cadde54da9fd49a54ab620298cfc635c727833ca50d","360252","[246,66,183,252,80,175,73,210,109,225,135,9,209,155,44,122,252,99,89,169,27,137,55,3,3,133,82,196,4,193,43,149]","2615","","","RIGHT","1500","-0.7","1000","3.4583333333333335","2.4083333333333337","d","true","d","1013","2499","2614","115","false","false","61031f137855ff378d67c2fc","653902af85e25554703e03b0","653910170ff47022d6a7977f","Positive","Negative"
"","moving-image","56","279174","0.0-4.1-0.44-0.44","823001ca7d6037a3302a9cadde54da9fd49a54ab620298cfc635c727833ca50d","360252","[246,66,183,252,80,175,73,210,109,225,135,9,209,155,44,122,252,99,89,169,27,137,55,3,3,133,82,196,4,193,43,149]","2867","","","LEFT","1500","3.54","1000","0.2783333333333333","5.588333333333334","a","false","d","1014","2500","2867","367","false","false","61031f137855ff378d67c2fc","653902af85e25554703e03b0","653910170ff47022d6a7977f","Positive","Negative"
"","moving-image","57","282025","0.0-4.1-0.45-0.45","823001ca7d6037a3302a9cadde54da9fd49a54ab620298cfc635c727833ca50d","360252","[246,66,183,252,80,175,73,210,109,225,135,9,209,155,44,122,252,99,89,169,27,137,55,3,3,133,82,196,4,193,43,149]","2344","","","LEFT","1000","-1.06666","1000","4.933330000000001","3.8666700000000005","d","true","d","1005","2008","2343","335","false","false","61031f137855ff378d67c2fc","653902af85e25554703e03b0","653910170ff47022d6a7977f","Positive","Negative"
"","moving-image","58","285685","0.0-4.1-0.46-0.46","823001ca7d6037a3302a9cadde54da9fd49a54ab620298cfc635c727833ca50d","360252","[246,66,183,252,80,175,73,210,109,225,135,9,209,155,44,122,252,99,89,169,27,137,55,3,3,133,82,196,4,193,43,149]","3143","","","LEFT","1500","-0.7","1000","3.4583333333333335","2.4083333333333337","d","true","d","1005","2504","3142","638","false","false","61031f137855ff378d67c2fc","653902af85e25554703e03b0","653910170ff47022d6a7977f","Positive","Negative"
"","moving-image","59","289607","0.0-4.1-0.47-0.47","823001ca7d6037a3302a9cadde54da9fd49a54ab620298cfc635c727833ca50d","360252","[246,66,183,252,80,175,73,210,109,225,135,9,209,155,44,122,252,99,89,169,27,137,55,3,3,133,82,196,4,193,43,149]","3399","","","RIGHT","1500","1.4","1000","1.8833333333333337","3.9833333333333334","a","false","d","1011","2506","3398","892","false","false","61031f137855ff378d67c2fc","653902af85e25554703e03b0","653910170ff47022d6a7977f","Positive","Negative"
"","moving-image","60","292294","0.0-4.1-0.48-0.48","823001ca7d6037a3302a9cadde54da9fd49a54ab620298cfc635c727833ca50d","360252","[246,66,183,252,80,175,73,210,109,225,135,9,209,155,44,122,252,99,89,169,27,137,55,3,3,133,82,196,4,193,43,149]","2178","","","RIGHT","1000","3.2","1000","2.8000000000000003","6","a","true","a","1009","1999","2178","179","false","false","61031f137855ff378d67c2fc","653902af85e25554703e03b0","653910170ff47022d6a7977f","Positive","Negative"
"","moving-image","61","295132","0.0-4.1-0.49-0.49","823001ca7d6037a3302a9cadde54da9fd49a54ab620298cfc635c727833ca50d","360252","[246,66,183,252,80,175,73,210,109,225,135,9,209,155,44,122,252,99,89,169,27,137,55,3,3,133,82,196,4,193,43,149]","2322","","","LEFT","1000","-3.2","1000","6","2.8000000000000003","d","false","a","1005","2002","2323","321","false","false","61031f137855ff378d67c2fc","653902af85e25554703e03b0","653910170ff47022d6a7977f","Positive","Negative"
"","moving-image","62","297864","0.0-4.1-0.50-0.50","823001ca7d6037a3302a9cadde54da9fd49a54ab620298cfc635c727833ca50d","360252","[246,66,183,252,80,175,73,210,109,225,135,9,209,155,44,122,252,99,89,169,27,137,55,3,3,133,82,196,4,193,43,149]","2216","","","RIGHT","1000","-3.2","1000","6","2.8000000000000003","d","false","a","1011","1994","2216","222","false","false","61031f137855ff378d67c2fc","653902af85e25554703e03b0","653910170ff47022d6a7977f","Positive","Negative"
"","moving-image","63","301308","0.0-4.1-0.51-0.51","823001ca7d6037a3302a9cadde54da9fd49a54ab620298cfc635c727833ca50d","360252","[246,66,183,252,80,175,73,210,109,225,135,9,209,155,44,122,252,99,89,169,27,137,55,3,3,133,82,196,4,193,43,149]","2925","","","RIGHT","1000","3.2","1000","2.8000000000000003","6","a","true","a","1007","2002","2925","923","false","false","61031f137855ff378d67c2fc","653902af85e25554703e03b0","653910170ff47022d6a7977f","Positive","Negative"
"","moving-image","64","310784","0.0-4.1-0.52-0.52","823001ca7d6037a3302a9cadde54da9fd49a54ab620298cfc635c727833ca50d","360252","[246,66,183,252,80,175,73,210,109,225,135,9,209,155,44,122,252,99,89,169,27,137,55,3,3,133,82,196,4,193,43,149]","8954","","","LEFT","1500","-3.54","1000","5.588333333333334","0.2783333333333333","d","true","d","1003","2452","8955","6503","false","false","61031f137855ff378d67c2fc","653902af85e25554703e03b0","653910170ff47022d6a7977f","Positive","Negative"
"","moving-image","65","313647","0.0-4.1-0.53-0.53","823001ca7d6037a3302a9cadde54da9fd49a54ab620298cfc635c727833ca50d","360252","[246,66,183,252,80,175,73,210,109,225,135,9,209,155,44,122,252,99,89,169,27,137,55,3,3,133,82,196,4,193,43,149]","2335","","","LEFT","1000","-3.2","1000","6","2.8000000000000003","d","false","a","1012","2003","2335","332","false","false","61031f137855ff378d67c2fc","653902af85e25554703e03b0","653910170ff47022d6a7977f","Positive","Negative"
"","html-keyboard-response","66","323944","0.0-4.1-1.1","823001ca7d6037a3302a9cadde54da9fd49a54ab620298cfc635c727833ca50d","360252","[246,66,183,252,80,175,73,210,109,225,135,9,209,155,44,122,252,99,89,169,27,137,55,3,3,133,82,196,4,193,43,149]","10291","<p style=""text-align:left;"">You have completed 2 blocks out of 4.</p>
                <p style=""text-align:left;"">Take a short break if you need and press A to continue.</p>","a","","","","","","","","","","","","","","","","","","","",""
"","moving-image","67","327100","0.0-4.2-0.54-0.54","823001ca7d6037a3302a9cadde54da9fd49a54ab620298cfc635c727833ca50d","360252","[246,66,183,252,80,175,73,210,109,225,135,9,209,155,44,122,252,99,89,169,27,137,55,3,3,133,82,196,4,193,43,149]","2637","","","LEFT","1500","0.7","1000","2.4083333333333337","3.4583333333333335","a","false","d","1006","2500","2637","137","false","false","61031f137855ff378d67c2fc","653902af85e25554703e03b0","653910170ff47022d6a7977f","Positive","Negative"
"","moving-image","68","330333","0.0-4.2-0.55-0.55","823001ca7d6037a3302a9cadde54da9fd49a54ab620298cfc635c727833ca50d","360252","[246,66,183,252,80,175,73,210,109,225,135,9,209,155,44,122,252,99,89,169,27,137,55,3,3,133,82,196,4,193,43,149]","2724","","","RIGHT","1500","-0.7","1000","3.4583333333333335","2.4083333333333337","d","true","d","1000","2495","2724","229","false","false","61031f137855ff378d67c2fc","653902af85e25554703e03b0","653910170ff47022d6a7977f","Positive","Negative"
"","moving-image","69","336215","0.0-4.2-0.56-0.56","823001ca7d6037a3302a9cadde54da9fd49a54ab620298cfc635c727833ca50d","360252","[246,66,183,252,80,175,73,210,109,225,135,9,209,155,44,122,252,99,89,169,27,137,55,3,3,133,82,196,4,193,43,149]","5362","","","LEFT","1000","0","1000","4.4","4.4","NaN","NaN","a","1008","1998","5364","3366","false","false","61031f137855ff378d67c2fc","653902af85e25554703e03b0","653910170ff47022d6a7977f","Positive","Negative"
"","moving-image","70","343521","0.0-4.2-0.57-0.57","823001ca7d6037a3302a9cadde54da9fd49a54ab620298cfc635c727833ca50d","360252","[246,66,183,252,80,175,73,210,109,225,135,9,209,155,44,122,252,99,89,169,27,137,55,3,3,133,82,196,4,193,43,149]","6782","","","RIGHT","1500","2.1","1000","1.3583333333333334","4.508333333333334","a","false","d","1010","2497","6783","4286","false","false","61031f137855ff378d67c2fc","653902af85e25554703e03b0","653910170ff47022d6a7977f","Positive","Negative"
"","moving-image","71","347387","0.0-4.2-0.58-0.58","823001ca7d6037a3302a9cadde54da9fd49a54ab620298cfc635c727833ca50d","360252","[246,66,183,252,80,175,73,210,109,225,135,9,209,155,44,122,252,99,89,169,27,137,55,3,3,133,82,196,4,193,43,149]","3348","","","LEFT","1500","1.4","1000","1.8833333333333337","3.9833333333333334","a","false","d","1011","2501","3348","847","false","false","61031f137855ff378d67c2fc","653902af85e25554703e03b0","653910170ff47022d6a7977f","Positive","Negative"
"","moving-image","72","354265","0.0-4.2-0.59-0.59","823001ca7d6037a3302a9cadde54da9fd49a54ab620298cfc635c727833ca50d","360252","[246,66,183,252,80,175,73,210,109,225,135,9,209,155,44,122,252,99,89,169,27,137,55,3,3,133,82,196,4,193,43,149]","6347","","","RIGHT","1000","-1.6","1000","5.2","3.6000000000000005","d","false","a","1011","1998","6348","4350","false","false","61031f137855ff378d67c2fc","653902af85e25554703e03b0","653910170ff47022d6a7977f","Positive","Negative"
"","moving-image","73","357962","0.0-4.2-0.60-0.60","823001ca7d6037a3302a9cadde54da9fd49a54ab620298cfc635c727833ca50d","360252","[246,66,183,252,80,175,73,210,109,225,135,9,209,155,44,122,252,99,89,169,27,137,55,3,3,133,82,196,4,193,43,149]","3182","","","RIGHT","1500","3.54","1000","0.2783333333333333","5.588333333333334","a","false","d","1011","2506","3182","676","false","false","61031f137855ff378d67c2fc","653902af85e25554703e03b0","653910170ff47022d6a7977f","Positive","Negative"
"","moving-image","74","361601","0.0-4.2-0.61-0.61","823001ca7d6037a3302a9cadde54da9fd49a54ab620298cfc635c727833ca50d","360252","[246,66,183,252,80,175,73,210,109,225,135,9,209,155,44,122,252,99,89,169,27,137,55,3,3,133,82,196,4,193,43,149]","3122","","","RIGHT","1500","2.8","1000","0.8333333333333339","5.033333333333333","a","false","d","1006","2498","3123","625","false","false","61031f137855ff378d67c2fc","653902af85e25554703e03b0","653910170ff47022d6a7977f","Positive","Negative"
"","moving-image","75","364247","0.0-4.2-0.62-0.62","823001ca7d6037a3302a9cadde54da9fd49a54ab620298cfc635c727833ca50d","360252","[246,66,183,252,80,175,73,210,109,225,135,9,209,155,44,122,252,99,89,169,27,137,55,3,3,133,82,196,4,193,43,149]","2123","","","RIGHT","1000","1.6","1000","3.6000000000000005","5.2","a","true","a","1002","2011","2122","111","false","false","61031f137855ff378d67c2fc","653902af85e25554703e03b0","653910170ff47022d6a7977f","Positive","Negative"
"","moving-image","76","367381","0.0-4.2-0.63-0.63","823001ca7d6037a3302a9cadde54da9fd49a54ab620298cfc635c727833ca50d","360252","[246,66,183,252,80,175,73,210,109,225,135,9,209,155,44,122,252,99,89,169,27,137,55,3,3,133,82,196,4,193,43,149]","2615","","","RIGHT","1000","6.4","1000","1.2000000000000002","7.6000000000000005","a","true","a","1002","2012","2614","602","false","false","61031f137855ff378d67c2fc","653902af85e25554703e03b0","653910170ff47022d6a7977f","Positive","Negative"
"","moving-image","77","370670","0.0-4.2-0.64-0.64","823001ca7d6037a3302a9cadde54da9fd49a54ab620298cfc635c727833ca50d","360252","[246,66,183,252,80,175,73,210,109,225,135,9,209,155,44,122,252,99,89,169,27,137,55,3,3,133,82,196,4,193,43,149]","2776","","","RIGHT","1500","0.7","1000","2.4083333333333337","3.4583333333333335","a","false","d","1014","2507","2776","269","false","false","61031f137855ff378d67c2fc","653902af85e25554703e03b0","653910170ff47022d6a7977f","Positive","Negative"
"","moving-image","78","373455","0.0-4.2-0.65-0.65","823001ca7d6037a3302a9cadde54da9fd49a54ab620298cfc635c727833ca50d","360252","[246,66,183,252,80,175,73,210,109,225,135,9,209,155,44,122,252,99,89,169,27,137,55,3,3,133,82,196,4,193,43,149]","2280","","","LEFT","1000","1.06666","1000","3.8666700000000005","4.933330000000001","a","true","a","1009","2006","2281","275","false","false","61031f137855ff378d67c2fc","653902af85e25554703e03b0","653910170ff47022d6a7977f","Positive","Negative"
"","moving-image","79","376194","0.0-4.2-0.66-0.66","823001ca7d6037a3302a9cadde54da9fd49a54ab620298cfc635c727833ca50d","360252","[246,66,183,252,80,175,73,210,109,225,135,9,209,155,44,122,252,99,89,169,27,137,55,3,3,133,82,196,4,193,43,149]","2219","","","RIGHT","1000","0","1000","4.4","4.4","NaN","NaN","a","1003","2003","2218","215","false","false","61031f137855ff378d67c2fc","653902af85e25554703e03b0","653910170ff47022d6a7977f","Positive","Negative"
"","moving-image","80","378836","0.0-4.2-0.67-0.67","823001ca7d6037a3302a9cadde54da9fd49a54ab620298cfc635c727833ca50d","360252","[246,66,183,252,80,175,73,210,109,225,135,9,209,155,44,122,252,99,89,169,27,137,55,3,3,133,82,196,4,193,43,149]","2131","","","LEFT","1000","-1.06666","1000","4.933330000000001","3.8666700000000005","d","false","a","1005","2002","2131","129","false","false","61031f137855ff378d67c2fc","653902af85e25554703e03b0","653910170ff47022d6a7977f","Positive","Negative"
"","moving-image","81","381852","0.0-4.2-0.68-0.68","823001ca7d6037a3302a9cadde54da9fd49a54ab620298cfc635c727833ca50d","360252","[246,66,183,252,80,175,73,210,109,225,135,9,209,155,44,122,252,99,89,169,27,137,55,3,3,133,82,196,4,193,43,149]","2511","","","LEFT","1500","0","1000","2.9333333333333336","2.9333333333333336","NaN","NaN","d","1007","2498","2510","12","false","false","61031f137855ff378d67c2fc","653902af85e25554703e03b0","653910170ff47022d6a7977f","Positive","Negative"
"","moving-image","82","385014","0.0-4.2-0.69-0.69","823001ca7d6037a3302a9cadde54da9fd49a54ab620298cfc635c727833ca50d","360252","[246,66,183,252,80,175,73,210,109,225,135,9,209,155,44,122,252,99,89,169,27,137,55,3,3,133,82,196,4,193,43,149]","2639","","","RIGHT","1500","2.1","1000","1.3583333333333334","4.508333333333334","a","false","d","1012","2503","2639","136","false","false","61031f137855ff378d67c2fc","653902af85e25554703e03b0","653910170ff47022d6a7977f","Positive","Negative"
"","moving-image","83","388145","0.0-4.2-0.70-0.70","823001ca7d6037a3302a9cadde54da9fd49a54ab620298cfc635c727833ca50d","360252","[246,66,183,252,80,175,73,210,109,225,135,9,209,155,44,122,252,99,89,169,27,137,55,3,3,133,82,196,4,193,43,149]","2612","","","RIGHT","1500","0.7","1000","2.4083333333333337","3.4583333333333335","a","false","d","1000","2497","2613","116","false","false","61031f137855ff378d67c2fc","653902af85e25554703e03b0","653910170ff47022d6a7977f","Positive","Negative"
"","moving-image","84","391238","0.0-4.2-0.71-0.71","823001ca7d6037a3302a9cadde54da9fd49a54ab620298cfc635c727833ca50d","360252","[246,66,183,252,80,175,73,210,109,225,135,9,209,155,44,122,252,99,89,169,27,137,55,3,3,133,82,196,4,193,43,149]","2580","","","LEFT","1500","0.7","1000","2.4083333333333337","3.4583333333333335","a","false","d","1015","2505","2579","74","false","false","61031f137855ff378d67c2fc","653902af85e25554703e03b0","653910170ff47022d6a7977f","Positive","Negative"
"","moving-image","85","393811","0.0-4.2-0.72-0.72","823001ca7d6037a3302a9cadde54da9fd49a54ab620298cfc635c727833ca50d","360252","[246,66,183,252,80,175,73,210,109,225,135,9,209,155,44,122,252,99,89,169,27,137,55,3,3,133,82,196,4,193,43,149]","2059","","","RIGHT","1000","0","1000","4.4","4.4","NaN","NaN","a","1003","2000","2060","60","false","false","61031f137855ff378d67c2fc","653902af85e25554703e03b0","653910170ff47022d6a7977f","Positive","Negative"
"","moving-image","86","400401","0.0-4.2-0.73-0.73","823001ca7d6037a3302a9cadde54da9fd49a54ab620298cfc635c727833ca50d","360252","[246,66,183,252,80,175,73,210,109,225,135,9,209,155,44,122,252,99,89,169,27,137,55,3,3,133,82,196,4,193,43,149]","6075","","","RIGHT","1500","2.8","1000","0.8333333333333339","5.033333333333333","a","false","d","1001","2502","6074","3572","false","false","61031f137855ff378d67c2fc","653902af85e25554703e03b0","653910170ff47022d6a7977f","Positive","Negative"
"","moving-image","87","405730","0.0-4.2-0.74-0.74","823001ca7d6037a3302a9cadde54da9fd49a54ab620298cfc635c727833ca50d","360252","[246,66,183,252,80,175,73,210,109,225,135,9,209,155,44,122,252,99,89,169,27,137,55,3,3,133,82,196,4,193,43,149]","4811","","","LEFT","1000","-3.2","1000","6","2.8000000000000003","d","false","a","1024","2007","4810","2803","false","false","61031f137855ff378d67c2fc","653902af85e25554703e03b0","653910170ff47022d6a7977f","Positive","Negative"
"","moving-image","88","409880","0.0-4.2-0.75-0.75","823001ca7d6037a3302a9cadde54da9fd49a54ab620298cfc635c727833ca50d","360252","[246,66,183,252,80,175,73,210,109,225,135,9,209,155,44,122,252,99,89,169,27,137,55,3,3,133,82,196,4,193,43,149]","3635","","","LEFT","1500","-2.8","1000","5.033333333333333","0.8333333333333339","d","true","d","1014","2479","3634","1155","false","false","61031f137855ff378d67c2fc","653902af85e25554703e03b0","653910170ff47022d6a7977f","Positive","Negative"
"","moving-image","89","413162","0.0-4.2-0.76-0.76","823001ca7d6037a3302a9cadde54da9fd49a54ab620298cfc635c727833ca50d","360252","[246,66,183,252,80,175,73,210,109,225,135,9,209,155,44,122,252,99,89,169,27,137,55,3,3,133,82,196,4,193,43,149]","2757","","","LEFT","1500","-3.54","1000","5.588333333333334","0.2783333333333333","d","true","d","1009","2453","2757","304","false","false","61031f137855ff378d67c2fc","653902af85e25554703e03b0","653910170ff47022d6a7977f","Positive","Negative"
"","moving-image","90","416830","0.0-4.2-0.77-0.77","823001ca7d6037a3302a9cadde54da9fd49a54ab620298cfc635c727833ca50d","360252","[246,66,183,252,80,175,73,210,109,225,135,9,209,155,44,122,252,99,89,169,27,137,55,3,3,133,82,196,4,193,43,149]","3160","","","RIGHT","1500","-3.54","1000","5.588333333333334","0.2783333333333333","d","true","d","1012","2459","3161","702","false","false","61031f137855ff378d67c2fc","653902af85e25554703e03b0","653910170ff47022d6a7977f","Positive","Negative"
"","moving-image","91","420116","0.0-4.2-0.78-0.78","823001ca7d6037a3302a9cadde54da9fd49a54ab620298cfc635c727833ca50d","360252","[246,66,183,252,80,175,73,210,109,225,135,9,209,155,44,122,252,99,89,169,27,137,55,3,3,133,82,196,4,193,43,149]","2766","","","LEFT","1500","-2.1","1000","4.508333333333334","1.3583333333333334","d","true","d","1015","2493","2767","274","false","false","61031f137855ff378d67c2fc","653902af85e25554703e03b0","653910170ff47022d6a7977f","Positive","Negative"
"","moving-image","92","423396","0.0-4.2-0.79-0.79","823001ca7d6037a3302a9cadde54da9fd49a54ab620298cfc635c727833ca50d","360252","[246,66,183,252,80,175,73,210,109,225,135,9,209,155,44,122,252,99,89,169,27,137,55,3,3,133,82,196,4,193,43,149]","2776","","","LEFT","1500","-0.7","1000","3.4583333333333335","2.4083333333333337","d","true","d","1011","2492","2776","284","false","false","61031f137855ff378d67c2fc","653902af85e25554703e03b0","653910170ff47022d6a7977f","Positive","Negative"
"","moving-image","93","426812","0.0-4.2-0.80-0.80","823001ca7d6037a3302a9cadde54da9fd49a54ab620298cfc635c727833ca50d","360252","[246,66,183,252,80,175,73,210,109,225,135,9,209,155,44,122,252,99,89,169,27,137,55,3,3,133,82,196,4,193,43,149]","2897","","","RIGHT","1500","2.8","1000","0.8333333333333339","5.033333333333333","a","false","d","1009","2509","2898","389","false","false","61031f137855ff378d67c2fc","653902af85e25554703e03b0","653910170ff47022d6a7977f","Positive","Negative"
"","html-keyboard-response","94","442155","0.0-4.2-1.2","823001ca7d6037a3302a9cadde54da9fd49a54ab620298cfc635c727833ca50d","360252","[246,66,183,252,80,175,73,210,109,225,135,9,209,155,44,122,252,99,89,169,27,137,55,3,3,133,82,196,4,193,43,149]","15326","<p style=""text-align:left;"">You have completed 3 blocks out of 4.</p>
                <p style=""text-align:left;"">Take a short break if you need and press A to continue.</p>","a","","","","","","","","","","","","","","","","","","","",""
"","moving-image","95","445283","0.0-4.3-0.81-0.81","823001ca7d6037a3302a9cadde54da9fd49a54ab620298cfc635c727833ca50d","360252","[246,66,183,252,80,175,73,210,109,225,135,9,209,155,44,122,252,99,89,169,27,137,55,3,3,133,82,196,4,193,43,149]","2619","","","RIGHT","1500","-2.8","1000","5.033333333333333","0.8333333333333339","d","true","d","1005","2486","2619","133","false","false","61031f137855ff378d67c2fc","653902af85e25554703e03b0","653910170ff47022d6a7977f","Positive","Negative"
"","moving-image","96","448577","0.0-4.3-0.82-0.82","823001ca7d6037a3302a9cadde54da9fd49a54ab620298cfc635c727833ca50d","360252","[246,66,183,252,80,175,73,210,109,225,135,9,209,155,44,122,252,99,89,169,27,137,55,3,3,133,82,196,4,193,43,149]","2772","","","RIGHT","1500","1.4","1000","1.8833333333333337","3.9833333333333334","a","false","d","1003","2503","2773","270","false","false","61031f137855ff378d67c2fc","653902af85e25554703e03b0","653910170ff47022d6a7977f","Positive","Negative"
"","moving-image","97","451718","0.0-4.3-0.83-0.83","823001ca7d6037a3302a9cadde54da9fd49a54ab620298cfc635c727833ca50d","360252","[246,66,183,252,80,175,73,210,109,225,135,9,209,155,44,122,252,99,89,169,27,137,55,3,3,133,82,196,4,193,43,149]","2623","","","RIGHT","1500","-1.4","1000","3.9833333333333334","1.8833333333333337","d","true","d","1010","2496","2624","128","false","false","61031f137855ff378d67c2fc","653902af85e25554703e03b0","653910170ff47022d6a7977f","Positive","Negative"
"","moving-image","98","454445","0.0-4.3-0.84-0.84","823001ca7d6037a3302a9cadde54da9fd49a54ab620298cfc635c727833ca50d","360252","[246,66,183,252,80,175,73,210,109,225,135,9,209,155,44,122,252,99,89,169,27,137,55,3,3,133,82,196,4,193,43,149]","2219","","","RIGHT","1000","1.6","1000","3.6000000000000005","5.2","a","true","a","1005","2001","2219","218","false","false","61031f137855ff378d67c2fc","653902af85e25554703e03b0","653910170ff47022d6a7977f","Positive","Negative"
"","moving-image","99","457309","0.0-4.3-0.85-0.85","823001ca7d6037a3302a9cadde54da9fd49a54ab620298cfc635c727833ca50d","360252","[246,66,183,252,80,175,73,210,109,225,135,9,209,155,44,122,252,99,89,169,27,137,55,3,3,133,82,196,4,193,43,149]","2339","","","LEFT","1000","3.2","1000","2.8000000000000003","6","a","false","d","1002","2005","2339","334","false","false","61031f137855ff378d67c2fc","653902af85e25554703e03b0","653910170ff47022d6a7977f","Positive","Negative"
"","moving-image","100","460177","0.0-4.3-0.86-0.86","823001ca7d6037a3302a9cadde54da9fd49a54ab620298cfc635c727833ca50d","360252","[246,66,183,252,80,175,73,210,109,225,135,9,209,155,44,122,252,99,89,169,27,137,55,3,3,133,82,196,4,193,43,149]","2346","","","LEFT","1000","1.06666","1000","3.8666700000000005","4.933330000000001","a","true","a","1003","1999","2348","349","false","false","61031f137855ff378d67c2fc","653902af85e25554703e03b0","653910170ff47022d6a7977f","Positive","Negative"
"","moving-image","101","463161","0.0-4.3-0.87-0.87","823001ca7d6037a3302a9cadde54da9fd49a54ab620298cfc635c727833ca50d","360252","[246,66,183,252,80,175,73,210,109,225,135,9,209,155,44,122,252,99,89,169,27,137,55,3,3,133,82,196,4,193,43,149]","2444","","","RIGHT","1000","3.2","1000","2.8000000000000003","6","a","true","a","1003","2001","2444","443","false","false","61031f137855ff378d67c2fc","653902af85e25554703e03b0","653910170ff47022d6a7977f","Positive","Negative"
"","moving-image","102","466131","0.0-4.3-0.88-0.88","823001ca7d6037a3302a9cadde54da9fd49a54ab620298cfc635c727833ca50d","360252","[246,66,183,252,80,175,73,210,109,225,135,9,209,155,44,122,252,99,89,169,27,137,55,3,3,133,82,196,4,193,43,149]","2446","","","RIGHT","1000","1.6","1000","3.6000000000000005","5.2","a","true","a","1021","2003","2447","444","false","false","61031f137855ff378d67c2fc","653902af85e25554703e03b0","653910170ff47022d6a7977f","Positive","Negative"
"","moving-image","103","469252","0.0-4.3-0.89-0.89","823001ca7d6037a3302a9cadde54da9fd49a54ab620298cfc635c727833ca50d","360252","[246,66,183,252,80,175,73,210,109,225,135,9,209,155,44,122,252,99,89,169,27,137,55,3,3,133,82,196,4,193,43,149]","2610","","","LEFT","1500","-2.1","1000","4.508333333333334","1.3583333333333334","d","true","d","1007","2497","2610","113","false","false","61031f137855ff378d67c2fc","653902af85e25554703e03b0","653910170ff47022d6a7977f","Positive","Negative"
"","moving-image","104","472132","0.0-4.3-0.90-0.90","823001ca7d6037a3302a9cadde54da9fd49a54ab620298cfc635c727833ca50d","360252","[246,66,183,252,80,175,73,210,109,225,135,9,209,155,44,122,252,99,89,169,27,137,55,3,3,133,82,196,4,193,43,149]","2358","","","RIGHT","1000","4.8","1000","2.0000000000000004","6.800000000000001","a","true","a","1008","2004","2359","355","false","false","61031f137855ff378d67c2fc","653902af85e25554703e03b0","653910170ff47022d6a7977f","Positive","Negative"
"","moving-image","105","475476","0.0-4.3-0.91-0.91","823001ca7d6037a3302a9cadde54da9fd49a54ab620298cfc635c727833ca50d","360252","[246,66,183,252,80,175,73,210,109,225,135,9,209,155,44,122,252,99,89,169,27,137,55,3,3,133,82,196,4,193,43,149]","2826","","","RIGHT","1500","-0.7","1000","3.4583333333333335","2.4083333333333337","d","true","d","1004","2502","2826","324","false","false","61031f137855ff378d67c2fc","653902af85e25554703e03b0","653910170ff47022d6a7977f","Positive","Negative"
"","moving-image","106","478306","0.0-4.3-0.92-0.92","823001ca7d6037a3302a9cadde54da9fd49a54ab620298cfc635c727833ca50d","360252","[246,66,183,252,80,175,73,210,109,225,135,9,209,155,44,122,252,99,89,169,27,137,55,3,3,133,82,196,4,193,43,149]","2318","","","LEFT","1000","-1.6","1000","5.2","3.6000000000000005","d","false","a","1004","2001","2320","319","false","false","61031f137855ff378d67c2fc","653902af85e25554703e03b0","653910170ff47022d6a7977f","Positive","Negative"
"","moving-image","107","481858","0.0-4.3-0.93-0.93","823001ca7d6037a3302a9cadde54da9fd49a54ab620298cfc635c727833ca50d","360252","[246,66,183,252,80,175,73,210,109,225,135,9,209,155,44,122,252,99,89,169,27,137,55,3,3,133,82,196,4,193,43,149]","3032","","","RIGHT","1500","3.54","1000","0.2783333333333333","5.588333333333334","a","true","a","1001","2511","3032","521","false","false","61031f137855ff378d67c2fc","653902af85e25554703e03b0","653910170ff47022d6a7977f","Positive","Negative"
"","moving-image","108","484793","0.0-4.3-0.94-0.94","823001ca7d6037a3302a9cadde54da9fd49a54ab620298cfc635c727833ca50d","360252","[246,66,183,252,80,175,73,210,109,225,135,9,209,155,44,122,252,99,89,169,27,137,55,3,3,133,82,196,4,193,43,149]","2419","","","RIGHT","1000","3.2","1000","2.8000000000000003","6","a","true","a","1009","2007","2419","412","false","false","61031f137855ff378d67c2fc","653902af85e25554703e03b0","653910170ff47022d6a7977f","Positive","Negative"
"","moving-image","109","488193","0.0-4.3-0.95-0.95","823001ca7d6037a3302a9cadde54da9fd49a54ab620298cfc635c727833ca50d","360252","[246,66,183,252,80,175,73,210,109,225,135,9,209,155,44,122,252,99,89,169,27,137,55,3,3,133,82,196,4,193,43,149]","2891","","","RIGHT","1500","2.8","1000","0.8333333333333339","5.033333333333333","a","false","d","1001","2508","2891","383","false","false","61031f137855ff378d67c2fc","653902af85e25554703e03b0","653910170ff47022d6a7977f","Positive","Negative"
"","moving-image","110","491937","0.0-4.3-0.96-0.96","823001ca7d6037a3302a9cadde54da9fd49a54ab620298cfc635c727833ca50d","360252","[246,66,183,252,80,175,73,210,109,225,135,9,209,155,44,122,252,99,89,169,27,137,55,3,3,133,82,196,4,193,43,149]","3234","","","RIGHT","1500","3.54","1000","0.2783333333333333","5.588333333333334","a","false","d","1011","2511","3235","724","false","false","61031f137855ff378d67c2fc","653902af85e25554703e03b0","653910170ff47022d6a7977f","Positive","Negative"
"","moving-image","111","495132","0.0-4.3-0.97-0.97","823001ca7d6037a3302a9cadde54da9fd49a54ab620298cfc635c727833ca50d","360252","[246,66,183,252,80,175,73,210,109,225,135,9,209,155,44,122,252,99,89,169,27,137,55,3,3,133,82,196,4,193,43,149]","2688","","","LEFT","1500","-2.1","1000","4.508333333333334","1.3583333333333334","d","true","d","1014","2488","2689","201","false","false","61031f137855ff378d67c2fc","653902af85e25554703e03b0","653910170ff47022d6a7977f","Positive","Negative"
"","moving-image","112","498128","0.0-4.3-0.98-0.98","823001ca7d6037a3302a9cadde54da9fd49a54ab620298cfc635c727833ca50d","360252","[246,66,183,252,80,175,73,210,109,225,135,9,209,155,44,122,252,99,89,169,27,137,55,3,3,133,82,196,4,193,43,149]","2480","","","RIGHT","1000","1.06666","1000","3.8666700000000005","4.933330000000001","a","true","a","1007","2004","2480","476","false","false","61031f137855ff378d67c2fc","653902af85e25554703e03b0","653910170ff47022d6a7977f","Positive","Negative"
"","moving-image","113","501378","0.0-4.3-0.99-0.99","823001ca7d6037a3302a9cadde54da9fd49a54ab620298cfc635c727833ca50d","360252","[246,66,183,252,80,175,73,210,109,225,135,9,209,155,44,122,252,99,89,169,27,137,55,3,3,133,82,196,4,193,43,149]","2744","","","LEFT","1500","-1.4","1000","3.9833333333333334","1.8833333333333337","d","true","d","1011","2492","2744","252","false","false","61031f137855ff378d67c2fc","653902af85e25554703e03b0","653910170ff47022d6a7977f","Positive","Negative"
"","moving-image","114","504207","0.0-4.3-0.100-0.100","823001ca7d6037a3302a9cadde54da9fd49a54ab620298cfc635c727833ca50d","360252","[246,66,183,252,80,175,73,210,109,225,135,9,209,155,44,122,252,99,89,169,27,137,55,3,3,133,82,196,4,193,43,149]","2308","","","RIGHT","1000","1.06666","1000","3.8666700000000005","4.933330000000001","a","true","a","1007","2011","2309","298","false","false","61031f137855ff378d67c2fc","653902af85e25554703e03b0","653910170ff47022d6a7977f","Positive","Negative"
"","moving-image","115","507349","0.0-4.3-0.101-0.101","823001ca7d6037a3302a9cadde54da9fd49a54ab620298cfc635c727833ca50d","360252","[246,66,183,252,80,175,73,210,109,225,135,9,209,155,44,122,252,99,89,169,27,137,55,3,3,133,82,196,4,193,43,149]","2627","","","LEFT","1000","-1.6","1000","5.2","3.6000000000000005","d","false","a","1009","2006","2626","620","false","false","61031f137855ff378d67c2fc","653902af85e25554703e03b0","653910170ff47022d6a7977f","Positive","Negative"
"","moving-image","116","510738","0.0-4.3-0.102-0.102","823001ca7d6037a3302a9cadde54da9fd49a54ab620298cfc635c727833ca50d","360252","[246,66,183,252,80,175,73,210,109,225,135,9,209,155,44,122,252,99,89,169,27,137,55,3,3,133,82,196,4,193,43,149]","2853","","","RIGHT","1000","-1.06666","1000","4.933330000000001","3.8666700000000005","d","false","a","1004","2003","2852","849","false","false","61031f137855ff378d67c2fc","653902af85e25554703e03b0","653910170ff47022d6a7977f","Positive","Negative"
"","moving-image","117","513376","0.0-4.3-0.103-0.103","823001ca7d6037a3302a9cadde54da9fd49a54ab620298cfc635c727833ca50d","360252","[246,66,183,252,80,175,73,210,109,225,135,9,209,155,44,122,252,99,89,169,27,137,55,3,3,133,82,196,4,193,43,149]","2127","","","LEFT","1000","-4.8","1000","6.800000000000001","2.0000000000000004","d","false","a","1002","1996","2128","132","false","false","61031f137855ff378d67c2fc","653902af85e25554703e03b0","653910170ff47022d6a7977f","Positive","Negative"
"","moving-image","118","516592","0.0-4.3-0.104-0.104","823001ca7d6037a3302a9cadde54da9fd49a54ab620298cfc635c727833ca50d","360252","[246,66,183,252,80,175,73,210,109,225,135,9,209,155,44,122,252,99,89,169,27,137,55,3,3,133,82,196,4,193,43,149]","2696","","","LEFT","1500","-2.8","1000","5.033333333333333","0.8333333333333339","d","true","d","1005","2486","2697","211","false","false","61031f137855ff378d67c2fc","653902af85e25554703e03b0","653910170ff47022d6a7977f","Positive","Negative"
"","moving-image","119","520043","0.0-4.3-0.105-0.105","823001ca7d6037a3302a9cadde54da9fd49a54ab620298cfc635c727833ca50d","360252","[246,66,183,252,80,175,73,210,109,225,135,9,209,155,44,122,252,99,89,169,27,137,55,3,3,133,82,196,4,193,43,149]","2934","","","RIGHT","1500","0.7","1000","2.4083333333333337","3.4583333333333335","a","false","d","1008","2497","2934","437","false","false","61031f137855ff378d67c2fc","653902af85e25554703e03b0","653910170ff47022d6a7977f","Positive","Negative"
"","moving-image","120","522733","0.0-4.3-0.106-0.106","823001ca7d6037a3302a9cadde54da9fd49a54ab620298cfc635c727833ca50d","360252","[246,66,183,252,80,175,73,210,109,225,135,9,209,155,44,122,252,99,89,169,27,137,55,3,3,133,82,196,4,193,43,149]","2182","","","RIGHT","1000","1.6","1000","3.6000000000000005","5.2","a","true","a","1007","2012","2182","170","false","false","61031f137855ff378d67c2fc","653902af85e25554703e03b0","653910170ff47022d6a7977f","Positive","Negative"
"","moving-image","121","527914","0.0-4.3-0.107-0.107","823001ca7d6037a3302a9cadde54da9fd49a54ab620298cfc635c727833ca50d","360252","[246,66,183,252,80,175,73,210,109,225,135,9,209,155,44,122,252,99,89,169,27,137,55,3,3,133,82,196,4,193,43,149]","4655","","","LEFT","1000","-4.8","1000","6.800000000000001","2.0000000000000004","d","false","a","1002","1999","4655","2656","false","false","61031f137855ff378d67c2fc","653902af85e25554703e03b0","653910170ff47022d6a7977f","Positive","Negative"
"","html-keyboard-response","122","529725","0.0-4.3-1.3","823001ca7d6037a3302a9cadde54da9fd49a54ab620298cfc635c727833ca50d","360252","[246,66,183,252,80,175,73,210,109,225,135,9,209,155,44,122,252,99,89,169,27,137,55,3,3,133,82,196,4,193,43,149]","1792","<p style=""text-align:left;"">You have finished the experiment.</p>
                <p style=""text-align:left;"">Press A to see your results.</p>","a","","","","","","","","","","","","","","","","","","","",""
"","html-keyboard-response","123","544469","0.0-5.0","823001ca7d6037a3302a9cadde54da9fd49a54ab620298cfc635c727833ca50d","360252","[246,66,183,252,80,175,73,210,109,225,135,9,209,155,44,122,252,99,89,169,27,137,55,3,3,133,82,196,4,193,43,149]","14738","
            <p style=""text-align:left;"">Study complete.</p>

            <p style=""text-align:left;"">You got 44 out of 108 trials correct.</p>        

            <p style=""text-align:left;"">Your mean reaction time was 918ms.</p>
            
            <p style=""text-align:left;"">Press A to continue.","a","","","","","","","","","","","","","","","","","","","",""

"success","trial_type","trial_index","time_elapsed","internal_node_id","protocol_sum","subject_identifier","subject_sum","rt","stimulus","response","direction","screen_duration","acceleration","start_time","initial_speed","final_speed","correct_response","correct","key_response","ball_start_time","ball_end_time","key_press_time","rt_from_ball","practice","extreme","subject_id","study_id","session_id","right_bias","left_bias"
"true","fullscreen","0","8826","0.0-0.0","823001ca7d6037a3302a9cadde54da9fd49a54ab620298cfc635c727833ca50d","360287","[171,157,214,76,240,43,48,147,254,145,118,107,1,82,29,75,247,202,66,231,188,76,36,105,185,95,229,142,236,10,204,134]","","","","","","","","","","","","","","","","","","","","","","",""
"","html-keyboard-response","1","23045","0.0-1.0","823001ca7d6037a3302a9cadde54da9fd49a54ab620298cfc635c727833ca50d","360287","[171,157,214,76,240,43,48,147,254,145,118,107,1,82,29,75,247,202,66,231,188,76,36,105,185,95,229,142,236,10,204,134]","14216","
            <p style=""text-align:left;"">In this study you will see a ball travelling across the screen.</p>
            <p style=""text-align:left;"">The ball will be either accelerating (getting faster) or decelerating (getting slower).</p>
            <p style=""text-align:left;"">Your task is to decide whether the ball is accelerating or decelerating.</p>
            <p style=""text-align:left;"">If the ball is accelerating press the A key.</p>
            <p style=""text-align:left;"">If the ball is decelerating press the D key.</p>
            <p style=""text-align:left;"">You can only respond once the ball has left the screen.</p>
            <p style=""text-align:left;"">You will now have an opportunity to practise, we will give you 8 trials and tell you if you are correct.</p>
            <p style=""text-align:left;"">Press the A key to start practising.</p>
            ","a","","","","","","","","","","","","","","","","","","","",""
"","moving-image","2","29791","0.0-2.0-0.0","823001ca7d6037a3302a9cadde54da9fd49a54ab620298cfc635c727833ca50d","360287","[171,157,214,76,240,43,48,147,254,145,118,107,1,82,29,75,247,202,66,231,188,76,36,105,185,95,229,142,236,10,204,134]","5230","","","RIGHT","1000","-8","1000","8.4","0.40000000000000036","d","false","a","1011","1966","5231","3265","true","true","5f1ec70a8a38e20008c19472","653902af85e25554703e03b0","653918b27b6f663ce1ca8716","Negative","Positive"
"","moving-image","3","34495","0.0-2.1-0.1","823001ca7d6037a3302a9cadde54da9fd49a54ab620298cfc635c727833ca50d","360287","[171,157,214,76,240,43,48,147,254,145,118,107,1,82,29,75,247,202,66,231,188,76,36,105,185,95,229,142,236,10,204,134]","3195","","","LEFT","1500","3.54","1000","0.2783333333333333","5.588333333333334","a","true","a","1002","2501","3195","694","true","false","5f1ec70a8a38e20008c19472","653902af85e25554703e03b0","653918b27b6f663ce1ca8716","Negative","Positive"
"","moving-image","4","38989","0.0-2.2-0.2","823001ca7d6037a3302a9cadde54da9fd49a54ab620298cfc635c727833ca50d","360287","[171,157,214,76,240,43,48,147,254,145,118,107,1,82,29,75,247,202,66,231,188,76,36,105,185,95,229,142,236,10,204,134]","2981","","","LEFT","1500","-1.4","1000","3.9833333333333334","1.8833333333333337","d","true","d","1002","2491","2982","491","true","false","5f1ec70a8a38e20008c19472","653902af85e25554703e03b0","653918b27b6f663ce1ca8716","Negative","Positive"
"","moving-image","5","43374","0.0-2.3-0.3","823001ca7d6037a3302a9cadde54da9fd49a54ab620298cfc635c727833ca50d","360287","[171,157,214,76,240,43,48,147,254,145,118,107,1,82,29,75,247,202,66,231,188,76,36,105,185,95,229,142,236,10,204,134]","2879","","","RIGHT","1500","-3.54","1000","5.588333333333334","0.2783333333333333","d","true","d","1004","2447","2879","432","true","false","5f1ec70a8a38e20008c19472","653902af85e25554703e03b0","653918b27b6f663ce1ca8716","Negative","Positive"
"","moving-image","6","47976","0.0-2.4-0.4","823001ca7d6037a3302a9cadde54da9fd49a54ab620298cfc635c727833ca50d","360287","[171,157,214,76,240,43,48,147,254,145,118,107,1,82,29,75,247,202,66,231,188,76,36,105,185,95,229,142,236,10,204,134]","3091","","","LEFT","1000","-1.6","1000","5.2","3.6000000000000005","d","true","d","1004","1996","3092","1096","true","false","5f1ec70a8a38e20008c19472","653902af85e25554703e03b0","653918b27b6f663ce1ca8716","Negative","Positive"
"","moving-image","7","52119","0.0-2.5-0.5","823001ca7d6037a3302a9cadde54da9fd49a54ab620298cfc635c727833ca50d","360287","[171,157,214,76,240,43,48,147,254,145,118,107,1,82,29,75,247,202,66,231,188,76,36,105,185,95,229,142,236,10,204,134]","2636","","","LEFT","1000","8","1000","0.40000000000000036","8.4","a","true","a","1002","2000","2636","636","true","true","5f1ec70a8a38e20008c19472","653902af85e25554703e03b0","653918b27b6f663ce1ca8716","Negative","Positive"
"","moving-image","8","56517","0.0-2.6-0.6","823001ca7d6037a3302a9cadde54da9fd49a54ab620298cfc635c727833ca50d","360287","[171,157,214,76,240,43,48,147,254,145,118,107,1,82,29,75,247,202,66,231,188,76,36,105,185,95,229,142,236,10,204,134]","2889","","","RIGHT","1000","1.6","1000","3.6000000000000005","5.2","a","true","a","1000","2000","2889","889","true","false","5f1ec70a8a38e20008c19472","653902af85e25554703e03b0","653918b27b6f663ce1ca8716","Negative","Positive"
"","moving-image","9","61416","0.0-2.7-0.7","823001ca7d6037a3302a9cadde54da9fd49a54ab620298cfc635c727833ca50d","360287","[171,157,214,76,240,43,48,147,254,145,118,107,1,82,29,75,247,202,66,231,188,76,36,105,185,95,229,142,236,10,204,134]","3389","","","RIGHT","1500","1.4","1000","1.8833333333333337","3.9833333333333334","a","true","a","1002","2496","3389","893","true","false","5f1ec70a8a38e20008c19472","653902af85e25554703e03b0","653918b27b6f663ce1ca8716","Negative","Positive"
"","html-keyboard-response","10","67864","0.0-3.0","823001ca7d6037a3302a9cadde54da9fd49a54ab620298cfc635c727833ca50d","360287","[171,157,214,76,240,43,48,147,254,145,118,107,1,82,29,75,247,202,66,231,188,76,36,105,185,95,229,142,236,10,204,134]","6446","
            <p style=""text-align:left;"">You are now ready to start the real experiment</p>
            <p style=""text-align:left;"">You will no longer get feedback but otherwise the task is exactly the same.</p>
            <p style=""text-align:left;"">Remember:</p>
            <p style=""text-align:left;"">If the ball is accelerating press the A key.</p>
            <p style=""text-align:left;"">If the ball is decelerating press the D key.</p>
            <p style=""text-align:left;"">This study consists of 4 blocks of 27 trials.</p>
            <p style=""text-align:left;"">Press the A key to start.</p>
            ","a","","","","","","","","","","","","","","","","","","","",""
"","moving-image","11","70707","0.0-4.0-0.0-0.0","823001ca7d6037a3302a9cadde54da9fd49a54ab620298cfc635c727833ca50d","360287","[171,157,214,76,240,43,48,147,254,145,118,107,1,82,29,75,247,202,66,231,188,76,36,105,185,95,229,142,236,10,204,134]","2342","","","RIGHT","1000","-8","1000","8.4","0.40000000000000036","d","true","d","1005","1967","2343","376","false","true","5f1ec70a8a38e20008c19472","653902af85e25554703e03b0","653918b27b6f663ce1ca8716","Negative","Positive"
"","moving-image","12","74056","0.0-4.0-0.1-0.1","823001ca7d6037a3302a9cadde54da9fd49a54ab620298cfc635c727833ca50d","360287","[171,157,214,76,240,43,48,147,254,145,118,107,1,82,29,75,247,202,66,231,188,76,36,105,185,95,229,142,236,10,204,134]","2842","","","RIGHT","1500","-1.4","1000","3.9833333333333334","1.8833333333333337","d","true","d","1002","2494","2843","349","false","false","5f1ec70a8a38e20008c19472","653902af85e25554703e03b0","653918b27b6f663ce1ca8716","Negative","Positive"
"","moving-image","13","76904","0.0-4.0-0.2-0.2","823001ca7d6037a3302a9cadde54da9fd49a54ab620298cfc635c727833ca50d","360287","[171,157,214,76,240,43,48,147,254,145,118,107,1,82,29,75,247,202,66,231,188,76,36,105,185,95,229,142,236,10,204,134]","2344","","","LEFT","1000","8","1000","0.40000000000000036","8.4","a","true","a","1002","2001","2345","344","false","true","5f1ec70a8a38e20008c19472","653902af85e25554703e03b0","653918b27b6f663ce1ca8716","Negative","Positive"
"","moving-image","14","80592","0.0-4.0-0.3-0.3","823001ca7d6037a3302a9cadde54da9fd49a54ab620298cfc635c727833ca50d","360287","[171,157,214,76,240,43,48,147,254,145,118,107,1,82,29,75,247,202,66,231,188,76,36,105,185,95,229,142,236,10,204,134]","3180","","","LEFT","1500","-2.1","1000","4.508333333333334","1.3583333333333334","d","true","d","1001","2489","3181","692","false","false","5f1ec70a8a38e20008c19472","653902af85e25554703e03b0","653918b27b6f663ce1ca8716","Negative","Positive"
"","moving-image","15","83603","0.0-4.0-0.4-0.4","823001ca7d6037a3302a9cadde54da9fd49a54ab620298cfc635c727833ca50d","360287","[171,157,214,76,240,43,48,147,254,145,118,107,1,82,29,75,247,202,66,231,188,76,36,105,185,95,229,142,236,10,204,134]","2506","","","RIGHT","1000","-8","1000","8.4","0.40000000000000036","d","true","d","1002","1965","2505","540","false","true","5f1ec70a8a38e20008c19472","653902af85e25554703e03b0","653918b27b6f663ce1ca8716","Negative","Positive"
"","moving-image","16","86624","0.0-4.0-0.5-0.5","823001ca7d6037a3302a9cadde54da9fd49a54ab620298cfc635c727833ca50d","360287","[171,157,214,76,240,43,48,147,254,145,118,107,1,82,29,75,247,202,66,231,188,76,36,105,185,95,229,142,236,10,204,134]","2516","","","LEFT","1000","8","1000","0.40000000000000036","8.4","a","true","a","1000","2000","2515","515","false","true","5f1ec70a8a38e20008c19472","653902af85e25554703e03b0","653918b27b6f663ce1ca8716","Negative","Positive"
"","moving-image","17","89978","0.0-4.0-0.6-0.6","823001ca7d6037a3302a9cadde54da9fd49a54ab620298cfc635c727833ca50d","360287","[171,157,214,76,240,43,48,147,254,145,118,107,1,82,29,75,247,202,66,231,188,76,36,105,185,95,229,142,236,10,204,134]","2850","","","RIGHT","1500","3.54","1000","0.2783333333333333","5.588333333333334","a","true","a","1001","2501","2850","349","false","false","5f1ec70a8a38e20008c19472","653902af85e25554703e03b0","653918b27b6f663ce1ca8716","Negative","Positive"
"","moving-image","18","92903","0.0-4.0-0.7-0.7","823001ca7d6037a3302a9cadde54da9fd49a54ab620298cfc635c727833ca50d","360287","[171,157,214,76,240,43,48,147,254,145,118,107,1,82,29,75,247,202,66,231,188,76,36,105,185,95,229,142,236,10,204,134]","2420","","","RIGHT","1000","-8","1000","8.4","0.40000000000000036","d","true","d","1001","1967","2420","453","false","true","5f1ec70a8a38e20008c19472","653902af85e25554703e03b0","653918b27b6f663ce1ca8716","Negative","Positive"
"","moving-image","19","96032","0.0-4.0-0.8-0.8","823001ca7d6037a3302a9cadde54da9fd49a54ab620298cfc635c727833ca50d","360287","[171,157,214,76,240,43,48,147,254,145,118,107,1,82,29,75,247,202,66,231,188,76,36,105,185,95,229,142,236,10,204,134]","2625","","","LEFT","1000","3.2","1000","2.8000000000000003","6","a","true","a","1004","2000","2625","625","false","false","5f1ec70a8a38e20008c19472","653902af85e25554703e03b0","653918b27b6f663ce1ca8716","Negative","Positive"
"","moving-image","20","99412","0.0-4.0-0.9-0.9","823001ca7d6037a3302a9cadde54da9fd49a54ab620298cfc635c727833ca50d","360287","[171,157,214,76,240,43,48,147,254,145,118,107,1,82,29,75,247,202,66,231,188,76,36,105,185,95,229,142,236,10,204,134]","2876","","","RIGHT","1500","-2.1","1000","4.508333333333334","1.3583333333333334","d","true","d","1004","2486","2876","390","false","false","5f1ec70a8a38e20008c19472","653902af85e25554703e03b0","653918b27b6f663ce1ca8716","Negative","Positive"
"","moving-image","21","102456","0.0-4.0-0.10-0.10","823001ca7d6037a3302a9cadde54da9fd49a54ab620298cfc635c727833ca50d","360287","[171,157,214,76,240,43,48,147,254,145,118,107,1,82,29,75,247,202,66,231,188,76,36,105,185,95,229,142,236,10,204,134]","2541","","","LEFT","1000","8","1000","0.40000000000000036","8.4","a","true","a","1001","2000","2539","539","false","true","5f1ec70a8a38e20008c19472","653902af85e25554703e03b0","653918b27b6f663ce1ca8716","Negative","Positive"
"","moving-image","22","105339","0.0-4.0-0.11-0.11","823001ca7d6037a3302a9cadde54da9fd49a54ab620298cfc635c727833ca50d","360287","[171,157,214,76,240,43,48,147,254,145,118,107,1,82,29,75,247,202,66,231,188,76,36,105,185,95,229,142,236,10,204,134]","2380","","","RIGHT","1000","-1.06666","1000","4.933330000000001","3.8666700000000005","d","true","d","1000","1996","2380","384","false","false","5f1ec70a8a38e20008c19472","653902af85e25554703e03b0","653918b27b6f663ce1ca8716","Negative","Positive"
"","moving-image","23","108843","0.0-4.0-0.12-0.12","823001ca7d6037a3302a9cadde54da9fd49a54ab620298cfc635c727833ca50d","360287","[171,157,214,76,240,43,48,147,254,145,118,107,1,82,29,75,247,202,66,231,188,76,36,105,185,95,229,142,236,10,204,134]","2997","","","LEFT","1000","1.6","1000","3.6000000000000005","5.2","a","true","a","1001","2000","2997","997","false","false","5f1ec70a8a38e20008c19472","653902af85e25554703e03b0","653918b27b6f663ce1ca8716","Negative","Positive"
"","moving-image","24","112802","0.0-4.0-0.13-0.13","823001ca7d6037a3302a9cadde54da9fd49a54ab620298cfc635c727833ca50d","360287","[171,157,214,76,240,43,48,147,254,145,118,107,1,82,29,75,247,202,66,231,188,76,36,105,185,95,229,142,236,10,204,134]","3454","","","LEFT","1500","1.4","1000","1.8833333333333337","3.9833333333333334","a","true","a","1001","2498","3454","956","false","false","5f1ec70a8a38e20008c19472","653902af85e25554703e03b0","653918b27b6f663ce1ca8716","Negative","Positive"
"","moving-image","25","115551","0.0-4.0-0.14-0.14","823001ca7d6037a3302a9cadde54da9fd49a54ab620298cfc635c727833ca50d","360287","[171,157,214,76,240,43,48,147,254,145,118,107,1,82,29,75,247,202,66,231,188,76,36,105,185,95,229,142,236,10,204,134]","2247","","","RIGHT","1000","-4.8","1000","6.800000000000001","2.0000000000000004","d","true","d","1004","1994","2246","252","false","false","5f1ec70a8a38e20008c19472","653902af85e25554703e03b0","653918b27b6f663ce1ca8716","Negative","Positive"
"","moving-image","26","119296","0.0-4.0-0.15-0.15","823001ca7d6037a3302a9cadde54da9fd49a54ab620298cfc635c727833ca50d","360287","[171,157,214,76,240,43,48,147,254,145,118,107,1,82,29,75,247,202,66,231,188,76,36,105,185,95,229,142,236,10,204,134]","3240","","","LEFT","1500","-0.7","1000","3.4583333333333335","2.4083333333333337","d","false","a","1003","2492","3240","748","false","false","5f1ec70a8a38e20008c19472","653902af85e25554703e03b0","653918b27b6f663ce1ca8716","Negative","Positive"
"","moving-image","27","122505","0.0-4.0-0.16-0.16","823001ca7d6037a3302a9cadde54da9fd49a54ab620298cfc635c727833ca50d","360287","[171,157,214,76,240,43,48,147,254,145,118,107,1,82,29,75,247,202,66,231,188,76,36,105,185,95,229,142,236,10,204,134]","2706","","","RIGHT","1500","-2.8","1000","5.033333333333333","0.8333333333333339","d","true","d","1001","2477","2706","229","false","false","5f1ec70a8a38e20008c19472","653902af85e25554703e03b0","653918b27b6f663ce1ca8716","Negative","Positive"
"","moving-image","28","125548","0.0-4.0-0.17-0.17","823001ca7d6037a3302a9cadde54da9fd49a54ab620298cfc635c727833ca50d","360287","[171,157,214,76,240,43,48,147,254,145,118,107,1,82,29,75,247,202,66,231,188,76,36,105,185,95,229,142,236,10,204,134]","2539","","","LEFT","1000","1.06666","1000","3.8666700000000005","4.933330000000001","a","true","a","1002","1998","2539","541","false","false","5f1ec70a8a38e20008c19472","653902af85e25554703e03b0","653918b27b6f663ce1ca8716","Negative","Positive"
"","moving-image","29","128737","0.0-4.0-0.18-0.18","823001ca7d6037a3302a9cadde54da9fd49a54ab620298cfc635c727833ca50d","360287","[171,157,214,76,240,43,48,147,254,145,118,107,1,82,29,75,247,202,66,231,188,76,36,105,185,95,229,142,236,10,204,134]","2684","","","RIGHT","1500","-3.54","1000","5.588333333333334","0.2783333333333333","d","true","d","1003","2447","2684","237","false","false","5f1ec70a8a38e20008c19472","653902af85e25554703e03b0","653918b27b6f663ce1ca8716","Negative","Positive"
"","moving-image","30","132400","0.0-4.0-0.19-0.19","823001ca7d6037a3302a9cadde54da9fd49a54ab620298cfc635c727833ca50d","360287","[171,157,214,76,240,43,48,147,254,145,118,107,1,82,29,75,247,202,66,231,188,76,36,105,185,95,229,142,236,10,204,134]","3157","","","RIGHT","1500","0.7","1000","2.4083333333333337","3.4583333333333335","a","true","a","1004","2496","3158","662","false","false","5f1ec70a8a38e20008c19472","653902af85e25554703e03b0","653918b27b6f663ce1ca8716","Negative","Positive"
"","moving-image","31","135691","0.0-4.0-0.20-0.20","823001ca7d6037a3302a9cadde54da9fd49a54ab620298cfc635c727833ca50d","360287","[171,157,214,76,240,43,48,147,254,145,118,107,1,82,29,75,247,202,66,231,188,76,36,105,185,95,229,142,236,10,204,134]","2788","","","RIGHT","1500","-1.4","1000","3.9833333333333334","1.8833333333333337","d","true","d","1001","2492","2789","297","false","false","5f1ec70a8a38e20008c19472","653902af85e25554703e03b0","653918b27b6f663ce1ca8716","Negative","Positive"
"","moving-image","32","138685","0.0-4.0-0.21-0.21","823001ca7d6037a3302a9cadde54da9fd49a54ab620298cfc635c727833ca50d","360287","[171,157,214,76,240,43,48,147,254,145,118,107,1,82,29,75,247,202,66,231,188,76,36,105,185,95,229,142,236,10,204,134]","2485","","","LEFT","1000","0","1000","4.4","4.4","NaN","NaN","a","1000","1997","2484","487","false","false","5f1ec70a8a38e20008c19472","653902af85e25554703e03b0","653918b27b6f663ce1ca8716","Negative","Positive"
"","moving-image","33","141466","0.0-4.0-0.22-0.22","823001ca7d6037a3302a9cadde54da9fd49a54ab620298cfc635c727833ca50d","360287","[171,157,214,76,240,43,48,147,254,145,118,107,1,82,29,75,247,202,66,231,188,76,36,105,185,95,229,142,236,10,204,134]","2277","","","LEFT","1000","6.4","1000","1.2000000000000002","7.6000000000000005","a","true","a","1003","1998","2276","278","false","false","5f1ec70a8a38e20008c19472","653902af85e25554703e03b0","653918b27b6f663ce1ca8716","Negative","Positive"
"","moving-image","34","144669","0.0-4.0-0.23-0.23","823001ca7d6037a3302a9cadde54da9fd49a54ab620298cfc635c727833ca50d","360287","[171,157,214,76,240,43,48,147,254,145,118,107,1,82,29,75,247,202,66,231,188,76,36,105,185,95,229,142,236,10,204,134]","2697","","","RIGHT","1000","-4.8","1000","6.800000000000001","2.0000000000000004","d","true","d","1004","1991","2697","706","false","false","5f1ec70a8a38e20008c19472","653902af85e25554703e03b0","653918b27b6f663ce1ca8716","Negative","Positive"
"","moving-image","35","147910","0.0-4.0-0.24-0.24","823001ca7d6037a3302a9cadde54da9fd49a54ab620298cfc635c727833ca50d","360287","[171,157,214,76,240,43,48,147,254,145,118,107,1,82,29,75,247,202,66,231,188,76,36,105,185,95,229,142,236,10,204,134]","2736","","","LEFT","1500","2.8","1000","0.8333333333333339","5.033333333333333","a","true","a","1001","2498","2737","239","false","false","5f1ec70a8a38e20008c19472","653902af85e25554703e03b0","653918b27b6f663ce1ca8716","Negative","Positive"
"","moving-image","36","151055","0.0-4.0-0.25-0.25","823001ca7d6037a3302a9cadde54da9fd49a54ab620298cfc635c727833ca50d","360287","[171,157,214,76,240,43,48,147,254,145,118,107,1,82,29,75,247,202,66,231,188,76,36,105,185,95,229,142,236,10,204,134]","2642","","","RIGHT","1000","1.06666","1000","3.8666700000000005","4.933330000000001","a","true","a","1003","1998","2640","642","false","false","5f1ec70a8a38e20008c19472","653902af85e25554703e03b0","653918b27b6f663ce1ca8716","Negative","Positive"
"","moving-image","37","153891","0.0-4.0-0.26-0.26","823001ca7d6037a3302a9cadde54da9fd49a54ab620298cfc635c727833ca50d","360287","[171,157,214,76,240,43,48,147,254,145,118,107,1,82,29,75,247,202,66,231,188,76,36,105,185,95,229,142,236,10,204,134]","2333","","","LEFT","1000","4.8","1000","2.0000000000000004","6.800000000000001","a","true","a","1004","2000","2333","333","false","false","5f1ec70a8a38e20008c19472","653902af85e25554703e03b0","653918b27b6f663ce1ca8716","Negative","Positive"
"","html-keyboard-response","38","156544","0.0-4.0-1.0","823001ca7d6037a3302a9cadde54da9fd49a54ab620298cfc635c727833ca50d","360287","[171,157,214,76,240,43,48,147,254,145,118,107,1,82,29,75,247,202,66,231,188,76,36,105,185,95,229,142,236,10,204,134]","2649","<p style=""text-align:left;"">You have completed 1 blocks out of 4.</p>
                <p style=""text-align:left;"">Take a short break if you need and press A to continue.</p>","a","","","","","","","","","","","","","","","","","","","",""
"","moving-image","39","159868","0.0-4.1-0.27-0.27","823001ca7d6037a3302a9cadde54da9fd49a54ab620298cfc635c727833ca50d","360287","[171,157,214,76,240,43,48,147,254,145,118,107,1,82,29,75,247,202,66,231,188,76,36,105,185,95,229,142,236,10,204,134]","2819","","","LEFT","1500","2.8","1000","0.8333333333333339","5.033333333333333","a","true","a","1004","2499","2820","321","false","false","5f1ec70a8a38e20008c19472","653902af85e25554703e03b0","653918b27b6f663ce1ca8716","Negative","Positive"
"","moving-image","40","162981","0.0-4.1-0.28-0.28","823001ca7d6037a3302a9cadde54da9fd49a54ab620298cfc635c727833ca50d","360287","[171,157,214,76,240,43,48,147,254,145,118,107,1,82,29,75,247,202,66,231,188,76,36,105,185,95,229,142,236,10,204,134]","2609","","","RIGHT","1500","-1.4","1000","3.9833333333333334","1.8833333333333337","d","true","d","1004","2493","2610","117","false","false","5f1ec70a8a38e20008c19472","653902af85e25554703e03b0","653918b27b6f663ce1ca8716","Negative","Positive"
"","moving-image","41","166371","0.0-4.1-0.29-0.29","823001ca7d6037a3302a9cadde54da9fd49a54ab620298cfc635c727833ca50d","360287","[171,157,214,76,240,43,48,147,254,145,118,107,1,82,29,75,247,202,66,231,188,76,36,105,185,95,229,142,236,10,204,134]","2886","","","RIGHT","1000","-3.2","1000","6","2.8000000000000003","d","false","a","1004","1995","2886","891","false","false","5f1ec70a8a38e20008c19472","653902af85e25554703e03b0","653918b27b6f663ce1ca8716","Negative","Positive"
"","moving-image","42","169710","0.0-4.1-0.30-0.30","823001ca7d6037a3302a9cadde54da9fd49a54ab620298cfc635c727833ca50d","360287","[171,157,214,76,240,43,48,147,254,145,118,107,1,82,29,75,247,202,66,231,188,76,36,105,185,95,229,142,236,10,204,134]","2834","","","LEFT","1500","0","1000","2.9333333333333336","2.9333333333333336","NaN","NaN","d","1002","2496","2834","338","false","false","5f1ec70a8a38e20008c19472","653902af85e25554703e03b0","653918b27b6f663ce1ca8716","Negative","Positive"
"","moving-image","43","173156","0.0-4.1-0.31-0.31","823001ca7d6037a3302a9cadde54da9fd49a54ab620298cfc635c727833ca50d","360287","[171,157,214,76,240,43,48,147,254,145,118,107,1,82,29,75,247,202,66,231,188,76,36,105,185,95,229,142,236,10,204,134]","2942","","","RIGHT","1500","-2.1","1000","4.508333333333334","1.3583333333333334","d","true","d","1002","2489","2941","452","false","false","5f1ec70a8a38e20008c19472","653902af85e25554703e03b0","653918b27b6f663ce1ca8716","Negative","Positive"
"","moving-image","44","176535","0.0-4.1-0.32-0.32","823001ca7d6037a3302a9cadde54da9fd49a54ab620298cfc635c727833ca50d","360287","[171,157,214,76,240,43,48,147,254,145,118,107,1,82,29,75,247,202,66,231,188,76,36,105,185,95,229,142,236,10,204,134]","2877","","","RIGHT","1500","0.7","1000","2.4083333333333337","3.4583333333333335","a","false","d","1005","2496","2876","380","false","false","5f1ec70a8a38e20008c19472","653902af85e25554703e03b0","653918b27b6f663ce1ca8716","Negative","Positive"
"","moving-image","45","180285","0.0-4.1-0.33-0.33","823001ca7d6037a3302a9cadde54da9fd49a54ab620298cfc635c727833ca50d","360287","[171,157,214,76,240,43,48,147,254,145,118,107,1,82,29,75,247,202,66,231,188,76,36,105,185,95,229,142,236,10,204,134]","3246","","","RIGHT","1500","-2.8","1000","5.033333333333333","0.8333333333333339","d","true","d","1000","2478","3246","768","false","false","5f1ec70a8a38e20008c19472","653902af85e25554703e03b0","653918b27b6f663ce1ca8716","Negative","Positive"
"","moving-image","46","183389","0.0-4.1-0.34-0.34","823001ca7d6037a3302a9cadde54da9fd49a54ab620298cfc635c727833ca50d","360287","[171,157,214,76,240,43,48,147,254,145,118,107,1,82,29,75,247,202,66,231,188,76,36,105,185,95,229,142,236,10,204,134]","2595","","","RIGHT","1500","-2.8","1000","5.033333333333333","0.8333333333333339","d","true","d","1000","2480","2595","115","false","false","5f1ec70a8a38e20008c19472","653902af85e25554703e03b0","653918b27b6f663ce1ca8716","Negative","Positive"
"","moving-image","47","186792","0.0-4.1-0.35-0.35","823001ca7d6037a3302a9cadde54da9fd49a54ab620298cfc635c727833ca50d","360287","[171,157,214,76,240,43,48,147,254,145,118,107,1,82,29,75,247,202,66,231,188,76,36,105,185,95,229,142,236,10,204,134]","2897","","","RIGHT","1500","0","1000","2.9333333333333336","2.9333333333333336","NaN","NaN","d","1000","2496","2897","401","false","false","5f1ec70a8a38e20008c19472","653902af85e25554703e03b0","653918b27b6f663ce1ca8716","Negative","Positive"
"","moving-image","48","189858","0.0-4.1-0.36-0.36","823001ca7d6037a3302a9cadde54da9fd49a54ab620298cfc635c727833ca50d","360287","[171,157,214,76,240,43,48,147,254,145,118,107,1,82,29,75,247,202,66,231,188,76,36,105,185,95,229,142,236,10,204,134]","2561","","","RIGHT","1000","-6.4","1000","7.6000000000000005","1.2000000000000002","d","true","d","1004","1987","2563","576","false","false","5f1ec70a8a38e20008c19472","653902af85e25554703e03b0","653918b27b6f663ce1ca8716","Negative","Positive"
"","moving-image","49","193213","0.0-4.1-0.37-0.37","823001ca7d6037a3302a9cadde54da9fd49a54ab620298cfc635c727833ca50d","360287","[171,157,214,76,240,43,48,147,254,145,118,107,1,82,29,75,247,202,66,231,188,76,36,105,185,95,229,142,236,10,204,134]","2851","","","LEFT","1500","2.8","1000","0.8333333333333339","5.033333333333333","a","true","a","1002","2498","2850","352","false","false","5f1ec70a8a38e20008c19472","653902af85e25554703e03b0","653918b27b6f663ce1ca8716","Negative","Positive"
"","moving-image","50","197459","0.0-4.1-0.38-0.38","823001ca7d6037a3302a9cadde54da9fd49a54ab620298cfc635c727833ca50d","360287","[171,157,214,76,240,43,48,147,254,145,118,107,1,82,29,75,247,202,66,231,188,76,36,105,185,95,229,142,236,10,204,134]","3740","","","RIGHT","1000","-3.2","1000","6","2.8000000000000003","d","true","d","1001","1993","3740","1747","false","false","5f1ec70a8a38e20008c19472","653902af85e25554703e03b0","653918b27b6f663ce1ca8716","Negative","Positive"
"","moving-image","51","200873","0.0-4.1-0.39-0.39","823001ca7d6037a3302a9cadde54da9fd49a54ab620298cfc635c727833ca50d","360287","[171,157,214,76,240,43,48,147,254,145,118,107,1,82,29,75,247,202,66,231,188,76,36,105,185,95,229,142,236,10,204,134]","2909","","","LEFT","1000","1.6","1000","3.6000000000000005","5.2","a","true","a","1001","2000","2909","909","false","false","5f1ec70a8a38e20008c19472","653902af85e25554703e03b0","653918b27b6f663ce1ca8716","Negative","Positive"
"","moving-image","52","204168","0.0-4.1-0.40-0.40","823001ca7d6037a3302a9cadde54da9fd49a54ab620298cfc635c727833ca50d","360287","[171,157,214,76,240,43,48,147,254,145,118,107,1,82,29,75,247,202,66,231,188,76,36,105,185,95,229,142,236,10,204,134]","2794","","","RIGHT","1500","2.8","1000","0.8333333333333339","5.033333333333333","a","true","a","1003","2499","2793","294","false","false","5f1ec70a8a38e20008c19472","653902af85e25554703e03b0","653918b27b6f663ce1ca8716","Negative","Positive"
"","moving-image","53","207660","0.0-4.1-0.41-0.41","823001ca7d6037a3302a9cadde54da9fd49a54ab620298cfc635c727833ca50d","360287","[171,157,214,76,240,43,48,147,254,145,118,107,1,82,29,75,247,202,66,231,188,76,36,105,185,95,229,142,236,10,204,134]","2985","","","LEFT","1000","3.2","1000","2.8000000000000003","6","a","true","a","1006","2000","2985","985","false","false","5f1ec70a8a38e20008c19472","653902af85e25554703e03b0","653918b27b6f663ce1ca8716","Negative","Positive"
"","moving-image","54","210973","0.0-4.1-0.42-0.42","823001ca7d6037a3302a9cadde54da9fd49a54ab620298cfc635c727833ca50d","360287","[171,157,214,76,240,43,48,147,254,145,118,107,1,82,29,75,247,202,66,231,188,76,36,105,185,95,229,142,236,10,204,134]","2805","","","RIGHT","1500","-0.7","1000","3.4583333333333335","2.4083333333333337","d","true","d","1003","2494","2806","312","false","false","5f1ec70a8a38e20008c19472","653902af85e25554703e03b0","653918b27b6f663ce1ca8716","Negative","Positive"
"","moving-image","55","214979","0.0-4.1-0.43-0.43","823001ca7d6037a3302a9cadde54da9fd49a54ab620298cfc635c727833ca50d","360287","[171,157,214,76,240,43,48,147,254,145,118,107,1,82,29,75,247,202,66,231,188,76,36,105,185,95,229,142,236,10,204,134]","3503","","","LEFT","1500","0.7","1000","2.4083333333333337","3.4583333333333335","a","false","d","1002","2495","3503","1008","false","false","5f1ec70a8a38e20008c19472","653902af85e25554703e03b0","653918b27b6f663ce1ca8716","Negative","Positive"
"","moving-image","56","218084","0.0-4.1-0.44-0.44","823001ca7d6037a3302a9cadde54da9fd49a54ab620298cfc635c727833ca50d","360287","[171,157,214,76,240,43,48,147,254,145,118,107,1,82,29,75,247,202,66,231,188,76,36,105,185,95,229,142,236,10,204,134]","2600","","","LEFT","1000","3.2","1000","2.8000000000000003","6","a","true","a","1002","1999","2600","601","false","false","5f1ec70a8a38e20008c19472","653902af85e25554703e03b0","653918b27b6f663ce1ca8716","Negative","Positive"
"","moving-image","57","221063","0.0-4.1-0.45-0.45","823001ca7d6037a3302a9cadde54da9fd49a54ab620298cfc635c727833ca50d","360287","[171,157,214,76,240,43,48,147,254,145,118,107,1,82,29,75,247,202,66,231,188,76,36,105,185,95,229,142,236,10,204,134]","2474","","","LEFT","1000","4.8","1000","2.0000000000000004","6.800000000000001","a","true","a","1004","2000","2474","474","false","false","5f1ec70a8a38e20008c19472","653902af85e25554703e03b0","653918b27b6f663ce1ca8716","Negative","Positive"
"","moving-image","58","224256","0.0-4.1-0.46-0.46","823001ca7d6037a3302a9cadde54da9fd49a54ab620298cfc635c727833ca50d","360287","[171,157,214,76,240,43,48,147,254,145,118,107,1,82,29,75,247,202,66,231,188,76,36,105,185,95,229,142,236,10,204,134]","2687","","","RIGHT","1500","-2.1","1000","4.508333333333334","1.3583333333333334","d","true","d","1003","2486","2687","201","false","false","5f1ec70a8a38e20008c19472","653902af85e25554703e03b0","653918b27b6f663ce1ca8716","Negative","Positive"
"","moving-image","59","228828","0.0-4.1-0.47-0.47","823001ca7d6037a3302a9cadde54da9fd49a54ab620298cfc635c727833ca50d","360287","[171,157,214,76,240,43,48,147,254,145,118,107,1,82,29,75,247,202,66,231,188,76,36,105,185,95,229,142,236,10,204,134]","4067","","","LEFT","1500","-0.7","1000","3.4583333333333335","2.4083333333333337","d","false","a","1003","2494","4067","1573","false","false","5f1ec70a8a38e20008c19472","653902af85e25554703e03b0","653918b27b6f663ce1ca8716","Negative","Positive"
"","moving-image","60","231705","0.0-4.1-0.48-0.48","823001ca7d6037a3302a9cadde54da9fd49a54ab620298cfc635c727833ca50d","360287","[171,157,214,76,240,43,48,147,254,145,118,107,1,82,29,75,247,202,66,231,188,76,36,105,185,95,229,142,236,10,204,134]","2372","","","RIGHT","1000","1.06666","1000","3.8666700000000005","4.933330000000001","a","true","a","1000","1996","2371","375","false","false","5f1ec70a8a38e20008c19472","653902af85e25554703e03b0","653918b27b6f663ce1ca8716","Negative","Positive"
"","moving-image","61","235054","0.0-4.1-0.49-0.49","823001ca7d6037a3302a9cadde54da9fd49a54ab620298cfc635c727833ca50d","360287","[171,157,214,76,240,43,48,147,254,145,118,107,1,82,29,75,247,202,66,231,188,76,36,105,185,95,229,142,236,10,204,134]","2846","","","RIGHT","1500","2.1","1000","1.3583333333333334","4.508333333333334","a","true","a","1002","2499","2846","347","false","false","5f1ec70a8a38e20008c19472","653902af85e25554703e03b0","653918b27b6f663ce1ca8716","Negative","Positive"
"","moving-image","62","239734","0.0-4.1-0.50-0.50","823001ca7d6037a3302a9cadde54da9fd49a54ab620298cfc635c727833ca50d","360287","[171,157,214,76,240,43,48,147,254,145,118,107,1,82,29,75,247,202,66,231,188,76,36,105,185,95,229,142,236,10,204,134]","4173","","","LEFT","1000","3.2","1000","2.8000000000000003","6","a","true","a","1001","2000","4173","2173","false","false","5f1ec70a8a38e20008c19472","653902af85e25554703e03b0","653918b27b6f663ce1ca8716","Negative","Positive"
"","moving-image","63","242954","0.0-4.1-0.51-0.51","823001ca7d6037a3302a9cadde54da9fd49a54ab620298cfc635c727833ca50d","360287","[171,157,214,76,240,43,48,147,254,145,118,107,1,82,29,75,247,202,66,231,188,76,36,105,185,95,229,142,236,10,204,134]","2716","","","RIGHT","1500","-2.8","1000","5.033333333333333","0.8333333333333339","d","true","d","1004","2480","2715","235","false","false","5f1ec70a8a38e20008c19472","653902af85e25554703e03b0","653918b27b6f663ce1ca8716","Negative","Positive"
"","moving-image","64","246334","0.0-4.1-0.52-0.52","823001ca7d6037a3302a9cadde54da9fd49a54ab620298cfc635c727833ca50d","360287","[171,157,214,76,240,43,48,147,254,145,118,107,1,82,29,75,247,202,66,231,188,76,36,105,185,95,229,142,236,10,204,134]","2876","","","LEFT","1500","-2.8","1000","5.033333333333333","0.8333333333333339","d","true","d","1003","2477","2875","398","false","false","5f1ec70a8a38e20008c19472","653902af85e25554703e03b0","653918b27b6f663ce1ca8716","Negative","Positive"
"","moving-image","65","249633","0.0-4.1-0.53-0.53","823001ca7d6037a3302a9cadde54da9fd49a54ab620298cfc635c727833ca50d","360287","[171,157,214,76,240,43,48,147,254,145,118,107,1,82,29,75,247,202,66,231,188,76,36,105,185,95,229,142,236,10,204,134]","2795","","","RIGHT","1500","-2.1","1000","4.508333333333334","1.3583333333333334","d","true","d","1001","2488","2795","307","false","false","5f1ec70a8a38e20008c19472","653902af85e25554703e03b0","653918b27b6f663ce1ca8716","Negative","Positive"
"","html-keyboard-response","66","254136","0.0-4.1-1.1","823001ca7d6037a3302a9cadde54da9fd49a54ab620298cfc635c727833ca50d","360287","[171,157,214,76,240,43,48,147,254,145,118,107,1,82,29,75,247,202,66,231,188,76,36,105,185,95,229,142,236,10,204,134]","4501","<p style=""text-align:left;"">You have completed 2 blocks out of 4.</p>
                <p style=""text-align:left;"">Take a short break if you need and press A to continue.</p>","a","","","","","","","","","","","","","","","","","","","",""
"","moving-image","67","257485","0.0-4.2-0.54-0.54","823001ca7d6037a3302a9cadde54da9fd49a54ab620298cfc635c727833ca50d","360287","[171,157,214,76,240,43,48,147,254,145,118,107,1,82,29,75,247,202,66,231,188,76,36,105,185,95,229,142,236,10,204,134]","2847","","","LEFT","1500","3.54","1000","0.2783333333333333","5.588333333333334","a","true","a","1003","2500","2846","346","false","false","5f1ec70a8a38e20008c19472","653902af85e25554703e03b0","653918b27b6f663ce1ca8716","Negative","Positive"
"","moving-image","68","261241","0.0-4.2-0.55-0.55","823001ca7d6037a3302a9cadde54da9fd49a54ab620298cfc635c727833ca50d","360287","[171,157,214,76,240,43,48,147,254,145,118,107,1,82,29,75,247,202,66,231,188,76,36,105,185,95,229,142,236,10,204,134]","3252","","","LEFT","1500","2.8","1000","0.8333333333333339","5.033333333333333","a","true","a","1002","2497","3253","756","false","false","5f1ec70a8a38e20008c19472","653902af85e25554703e03b0","653918b27b6f663ce1ca8716","Negative","Positive"
"","moving-image","69","264437","0.0-4.2-0.56-0.56","823001ca7d6037a3302a9cadde54da9fd49a54ab620298cfc635c727833ca50d","360287","[171,157,214,76,240,43,48,147,254,145,118,107,1,82,29,75,247,202,66,231,188,76,36,105,185,95,229,142,236,10,204,134]","2692","","","RIGHT","1500","0","1000","2.9333333333333336","2.9333333333333336","NaN","NaN","d","1003","2494","2693","199","false","false","5f1ec70a8a38e20008c19472","653902af85e25554703e03b0","653918b27b6f663ce1ca8716","Negative","Positive"
"","moving-image","70","268318","0.0-4.2-0.57-0.57","823001ca7d6037a3302a9cadde54da9fd49a54ab620298cfc635c727833ca50d","360287","[171,157,214,76,240,43,48,147,254,145,118,107,1,82,29,75,247,202,66,231,188,76,36,105,185,95,229,142,236,10,204,134]","3373","","","LEFT","1000","-3.2","1000","6","2.8000000000000003","d","false","a","1004","1994","3374","1380","false","false","5f1ec70a8a38e20008c19472","653902af85e25554703e03b0","653918b27b6f663ce1ca8716","Negative","Positive"
"","moving-image","71","271381","0.0-4.2-0.58-0.58","823001ca7d6037a3302a9cadde54da9fd49a54ab620298cfc635c727833ca50d","360287","[171,157,214,76,240,43,48,147,254,145,118,107,1,82,29,75,247,202,66,231,188,76,36,105,185,95,229,142,236,10,204,134]","2559","","","RIGHT","1000","0","1000","4.4","4.4","NaN","NaN","a","1002","1996","2559","563","false","false","5f1ec70a8a38e20008c19472","653902af85e25554703e03b0","653918b27b6f663ce1ca8716","Negative","Positive"
"","moving-image","72","274543","0.0-4.2-0.59-0.59","823001ca7d6037a3302a9cadde54da9fd49a54ab620298cfc635c727833ca50d","360287","[171,157,214,76,240,43,48,147,254,145,118,107,1,82,29,75,247,202,66,231,188,76,36,105,185,95,229,142,236,10,204,134]","2658","","","LEFT","1500","3.54","1000","0.2783333333333333","5.588333333333334","a","true","a","1003","2497","2658","161","false","false","5f1ec70a8a38e20008c19472","653902af85e25554703e03b0","653918b27b6f663ce1ca8716","Negative","Positive"
"","moving-image","73","277750","0.0-4.2-0.60-0.60","823001ca7d6037a3302a9cadde54da9fd49a54ab620298cfc635c727833ca50d","360287","[171,157,214,76,240,43,48,147,254,145,118,107,1,82,29,75,247,202,66,231,188,76,36,105,185,95,229,142,236,10,204,134]","2703","","","LEFT","1500","1.4","1000","1.8833333333333337","3.9833333333333334","a","true","a","1000","2497","2702","205","false","false","5f1ec70a8a38e20008c19472","653902af85e25554703e03b0","653918b27b6f663ce1ca8716","Negative","Positive"
"","moving-image","74","280996","0.0-4.2-0.61-0.61","823001ca7d6037a3302a9cadde54da9fd49a54ab620298cfc635c727833ca50d","360287","[171,157,214,76,240,43,48,147,254,145,118,107,1,82,29,75,247,202,66,231,188,76,36,105,185,95,229,142,236,10,204,134]","2740","","","RIGHT","1000","-1.6","1000","5.2","3.6000000000000005","d","false","a","1003","1995","2740","745","false","false","5f1ec70a8a38e20008c19472","653902af85e25554703e03b0","653918b27b6f663ce1ca8716","Negative","Positive"
"","moving-image","75","284158","0.0-4.2-0.62-0.62","823001ca7d6037a3302a9cadde54da9fd49a54ab620298cfc635c727833ca50d","360287","[171,157,214,76,240,43,48,147,254,145,118,107,1,82,29,75,247,202,66,231,188,76,36,105,185,95,229,142,236,10,204,134]","2656","","","RIGHT","1500","0.7","1000","2.4083333333333337","3.4583333333333335","a","false","d","1002","2495","2655","160","false","false","5f1ec70a8a38e20008c19472","653902af85e25554703e03b0","653918b27b6f663ce1ca8716","Negative","Positive"
"","moving-image","76","286960","0.0-4.2-0.63-0.63","823001ca7d6037a3302a9cadde54da9fd49a54ab620298cfc635c727833ca50d","360287","[171,157,214,76,240,43,48,147,254,145,118,107,1,82,29,75,247,202,66,231,188,76,36,105,185,95,229,142,236,10,204,134]","2296","","","RIGHT","1000","-3.2","1000","6","2.8000000000000003","d","true","d","1003","1994","2295","301","false","false","5f1ec70a8a38e20008c19472","653902af85e25554703e03b0","653918b27b6f663ce1ca8716","Negative","Positive"
