"success","timeout","failed_images","failed_audio","failed_video","trial_type","trial_index","time_elapsed","internal_node_id","rt","stimulus","response","direction","screen_duration","acceleration","start_time","initial_speed","final_speed","correct_response","correct","key_response","ball_start_time","ball_end_time","key_press_time","rt_from_ball","practice","extreme","subject_id","study_id","session_id","right_bias","left_bias","recodeDir","recodeKey"
"","","","","","moving-image",3,37750,"0.0-3.0-0.0",3048,"","","DOWN",1000,1.06666,1000,3.86667,4.93333,"a","true","a",1000,2000,3048,1048,"true","false","60c47bdfde98f62c0f688ae3","649333f3a54f0d623a537f0c","649334b34abc04b432b59807","Negative","Positive","DOWN",1
"","","","","","moving-image",5,49667,"0.0-3.2-0.2",3928,"","","DOWN",1500,2.8,1000,0.833333333333334,5.03333333333333,"a","true","a",1001,2497,3928,1431,"true","false","60c47bdfde98f62c0f688ae3","649333f3a54f0d623a537f0c","649334b34abc04b432b59807","Negative","Positive","DOWN",1
"","","","","","moving-image",7,58571,"0.0-3.4-0.4",2635,"","","DOWN",1500,0,1000,2.93333333333333,2.93333333333333,"d","true","d",1001,2496,2634,138,"true","false","60c47bdfde98f62c0f688ae3","649333f3a54f0d623a537f0c","649334b34abc04b432b59807","Negative","Positive","DOWN",0
"","","","","","moving-image",8,62554,"0.0-3.5-0.5",2479,"","","LEFT",1000,1.06666,1000,3.86667,4.93333,"a","true","a",1000,2002,2479,477,"true","false","60c47bdfde98f62c0f688ae3","649333f3a54f0d623a537f0c","649334b34abc04b432b59807","Negative","Positive","ACCELERATING",1
"","","","","","moving-image",9,66350,"0.0-3.6-0.6",2291,"","","DOWN",1000,1.6,1000,3.6,5.2,"a","false","d",1000,2001,2291,290,"true","false","60c47bdfde98f62c0f688ae3","649333f3a54f0d623a537f0c","649334b34abc04b432b59807","Negative","Positive","DOWN",0
"","","","","","moving-image",13,85153,"0.0-3.10-0.10",3235,"","","DOWN",1500,1.4,1000,1.88333333333333,3.98333333333333,"a","false","d",1000,2497,3234,737,"true","false","60c47bdfde98f62c0f688ae3","649333f3a54f0d623a537f0c","649334b34abc04b432b59807","Negative","Positive","DOWN",0
"","","","","","moving-image",14,90578,"0.0-3.11-0.11",3905,"","","RIGHT",1500,0,1000,2.93333333333333,2.93333333333333,"d","false","a",1000,2497,3904,1407,"true","false","60c47bdfde98f62c0f688ae3","649333f3a54f0d623a537f0c","649334b34abc04b432b59807","Negative","Positive","DECELERATING",1
"","","","","","moving-image",16,126374,"0.0-5.0-0.0-0.0",2541,"","","DOWN",1500,-0.7,1000,3.45833333333333,2.40833333333333,"d","true","d",1001,2497,2541,44,"false","false","60c47bdfde98f62c0f688ae3","649333f3a54f0d623a537f0c","649334b34abc04b432b59807","Negative","Positive","DOWN",0
"","","","","","moving-image",18,132726,"0.0-5.0-0.2-0.2",2907,"","","DOWN",1500,1.06666,1000,2.13333833333333,3.73332833333333,"a","false","d",1000,2498,2906,408,"false","false","60c47bdfde98f62c0f688ae3","649333f3a54f0d623a537f0c","649334b34abc04b432b59807","Negative","Positive","DOWN",0
"","","","","","moving-image",20,139468,"0.0-5.0-0.4-0.4",2918,"","","DOWN",1500,1.06666,1000,2.13333833333333,3.73332833333333,"a","false","d",1001,2498,2919,421,"false","false","60c47bdfde98f62c0f688ae3","649333f3a54f0d623a537f0c","649334b34abc04b432b59807","Negative","Positive","DOWN",0
"","","","","","moving-image",21,142650,"0.0-5.0-0.5-0.5",2678,"","","RIGHT",1000,-1.06666,1000,4.93333,3.86667,"d","false","a",1000,2000,2677,677,"false","false","60c47bdfde98f62c0f688ae3","649333f3a54f0d623a537f0c","649334b34abc04b432b59807","Negative","Positive","DECELERATING",1
"","","","","","moving-image",22,146473,"0.0-5.0-0.6-0.6",3320,"","","UP",1500,3.54,1000,0.278333333333333,5.58833333333333,"a","true","a",1001,2498,3321,823,"false","false","60c47bdfde98f62c0f688ae3","649333f3a54f0d623a537f0c","649334b34abc04b432b59807","Negative","Positive","UP",1
"","","","","","moving-image",23,150334,"0.0-5.0-0.7-0.7",3356,"","","LEFT",1000,-1.6,1000,5.2,3.6,"d","false","a",1000,2000,3356,1356,"false","false","60c47bdfde98f62c0f688ae3","649333f3a54f0d623a537f0c","649334b34abc04b432b59807","Negative","Positive","ACCELERATING",1
"","","","","","moving-image",24,153961,"0.0-5.0-0.8-0.8",3122,"","","UP",1500,-0.7,1000,3.45833333333333,2.40833333333333,"d","true","d",1001,2496,3121,625,"false","false","60c47bdfde98f62c0f688ae3","649333f3a54f0d623a537f0c","649334b34abc04b432b59807","Negative","Positive","UP",0
"","","","","","moving-image",26,160717,"0.0-5.0-0.10-0.10",3141,"","","UP",1000,0,1000,4.4,4.4,"d","false","a",1000,2002,3140,1138,"false","false","60c47bdfde98f62c0f688ae3","649333f3a54f0d623a537f0c","649334b34abc04b432b59807","Negative","Positive","UP",1
"","","","","","moving-image",27,164543,"0.0-5.0-0.11-0.11",3322,"","","LEFT",1000,3.2,1000,2.8,6,"a","true","a",1001,2002,3323,1321,"false","false","60c47bdfde98f62c0f688ae3","649333f3a54f0d623a537f0c","649334b34abc04b432b59807","Negative","Positive","ACCELERATING",1
"","","","","","moving-image",28,168544,"0.0-5.0-0.12-0.12",3494,"","","DOWN",1500,3.54,1000,0.278333333333333,5.58833333333333,"a","true","a",1001,2497,3494,997,"false","false","60c47bdfde98f62c0f688ae3","649333f3a54f0d623a537f0c","649334b34abc04b432b59807","Negative","Positive","DOWN",1
"","","","","","moving-image",30,175916,"0.0-5.0-0.14-0.14",3199,"","","UP",1500,0.7,1000,2.40833333333333,3.45833333333333,"a","false","d",1000,2497,3198,701,"false","false","60c47bdfde98f62c0f688ae3","649333f3a54f0d623a537f0c","649334b34abc04b432b59807","Negative","Positive","UP",0
"","","","","","moving-image",31,179904,"0.0-5.0-0.15-0.15",3485,"","","LEFT",1500,3.54,1000,0.278333333333333,5.58833333333333,"a","true","a",1002,2497,3485,988,"false","false","60c47bdfde98f62c0f688ae3","649333f3a54f0d623a537f0c","649334b34abc04b432b59807","Negative","Positive","ACCELERATING",1
"","","","","","moving-image",32,183810,"0.0-5.0-0.16-0.16",3401,"","","DOWN",1500,1.06666,1000,2.13333833333333,3.73332833333333,"a","false","d",1001,2497,3401,904,"false","false","60c47bdfde98f62c0f688ae3","649333f3a54f0d623a537f0c","649334b34abc04b432b59807","Negative","Positive","DOWN",0
"","","","","","moving-image",34,190688,"0.0-5.0-0.18-0.18",2942,"","","UP",1000,0,1000,4.4,4.4,"d","false","a",1001,2000,2942,942,"false","false","60c47bdfde98f62c0f688ae3","649333f3a54f0d623a537f0c","649334b34abc04b432b59807","Negative","Positive","UP",1
"","","","","","moving-image",35,194503,"0.0-5.0-0.19-0.19",3310,"","","RIGHT",1500,2.8,1000,0.833333333333334,5.03333333333333,"a","true","a",1001,2498,3310,812,"false","false","60c47bdfde98f62c0f688ae3","649333f3a54f0d623a537f0c","649334b34abc04b432b59807","Negative","Positive","DECELERATING",1
"","","","","","moving-image",36,198079,"0.0-5.0-0.20-0.20",3069,"","","DOWN",1500,2.1,1000,1.35833333333333,4.50833333333333,"a","false","d",1000,2496,3068,572,"false","false","60c47bdfde98f62c0f688ae3","649333f3a54f0d623a537f0c","649334b34abc04b432b59807","Negative","Positive","DOWN",0
"","","","","","moving-image",37,202045,"0.0-5.0-0.21-0.21",3461,"","","LEFT",1000,3.2,1000,2.8,6,"a","false","d",1001,2001,3462,1461,"false","false","60c47bdfde98f62c0f688ae3","649333f3a54f0d623a537f0c","649334b34abc04b432b59807","Negative","Positive","ACCELERATING",0
"","","","","","moving-image",38,205152,"0.0-5.0-0.22-0.22",2603,"","","UP",1000,0,1000,4.4,4.4,"d","false","a",1001,2001,2603,602,"false","false","60c47bdfde98f62c0f688ae3","649333f3a54f0d623a537f0c","649334b34abc04b432b59807","Negative","Positive","UP",1
"","","","","","moving-image",39,208261,"0.0-5.0-0.23-0.23",2606,"","","LEFT",1000,0,1000,4.4,4.4,"d","true","d",1002,2000,2606,606,"false","false","60c47bdfde98f62c0f688ae3","649333f3a54f0d623a537f0c","649334b34abc04b432b59807","Negative","Positive","ACCELERATING",0
"","","","","","moving-image",40,211597,"0.0-5.0-0.24-0.24",2832,"","","UP",1500,0,1000,2.93333333333333,2.93333333333333,"d","true","d",1001,2497,2831,334,"false","false","60c47bdfde98f62c0f688ae3","649333f3a54f0d623a537f0c","649334b34abc04b432b59807","Negative","Positive","UP",0
"","","","","","moving-image",42,226320,"0.0-5.1-0.25-0.25",2427,"","","RIGHT",1500,-3.54,1000,5.58833333333333,0.278333333333333,"d","true","d",1001,2418,2427,9,"false","false","60c47bdfde98f62c0f688ae3","649333f3a54f0d623a537f0c","649334b34abc04b432b59807","Negative","Positive","DECELERATING",0
"","","","","","moving-image",43,229904,"0.0-5.1-0.26-0.26",3080,"","","UP",1500,-1.06666,1000,3.73332833333333,2.13333833333333,"d","true","d",1000,2496,3080,584,"false","false","60c47bdfde98f62c0f688ae3","649333f3a54f0d623a537f0c","649334b34abc04b432b59807","Negative","Positive","UP",0
"","","","","","moving-image",44,233413,"0.0-5.1-0.27-0.27",3003,"","","RIGHT",1500,-2.8,1000,5.03333333333333,0.833333333333334,"d","true","d",1002,2466,3004,538,"false","false","60c47bdfde98f62c0f688ae3","649333f3a54f0d623a537f0c","649334b34abc04b432b59807","Negative","Positive","DECELERATING",0
"","","","","","moving-image",45,237135,"0.0-5.1-0.28-0.28",3218,"","","UP",1500,1.4,1000,1.88333333333333,3.98333333333333,"a","true","a",1002,2498,3219,721,"false","false","60c47bdfde98f62c0f688ae3","649333f3a54f0d623a537f0c","649334b34abc04b432b59807","Negative","Positive","UP",1
"","","","","","moving-image",46,241138,"0.0-5.1-0.29-0.29",3497,"","","LEFT",1000,1.06666,1000,3.86667,4.93333,"a","true","a",1000,2000,3497,1497,"false","false","60c47bdfde98f62c0f688ae3","649333f3a54f0d623a537f0c","649334b34abc04b432b59807","Negative","Positive","ACCELERATING",1
"","","","","","moving-image",47,245274,"0.0-5.1-0.30-0.30",3632,"","","DOWN",1500,-0.7,1000,3.45833333333333,2.40833333333333,"d","true","d",1000,2497,3632,1135,"false","false","60c47bdfde98f62c0f688ae3","649333f3a54f0d623a537f0c","649334b34abc04b432b59807","Negative","Positive","DOWN",0
"","","","","","moving-image",48,248649,"0.0-5.1-0.31-0.31",2866,"","","LEFT",1000,1.6,1000,3.6,5.2,"a","true","a",1000,2002,2867,865,"false","false","60c47bdfde98f62c0f688ae3","649333f3a54f0d623a537f0c","649334b34abc04b432b59807","Negative","Positive","ACCELERATING",1
"","","","","","moving-image",49,251899,"0.0-5.1-0.32-0.32",2747,"","","DOWN",1000,1.06666,1000,3.86667,4.93333,"a","true","a",1002,2001,2747,746,"false","false","60c47bdfde98f62c0f688ae3","649333f3a54f0d623a537f0c","649334b34abc04b432b59807","Negative","Positive","DOWN",1
"","","","","","moving-image",50,254931,"0.0-5.1-0.33-0.33",2528,"","","RIGHT",1000,-1.6,1000,5.2,3.6,"d","false","a",1001,2002,2528,526,"false","false","60c47bdfde98f62c0f688ae3","649333f3a54f0d623a537f0c","649334b34abc04b432b59807","Negative","Positive","DECELERATING",1
"","","","","","moving-image",51,258092,"0.0-5.1-0.34-0.34",2657,"","","DOWN",1500,-2.1,1000,4.50833333333333,1.35833333333333,"d","true","d",1002,2481,2658,177,"false","false","60c47bdfde98f62c0f688ae3","649333f3a54f0d623a537f0c","649334b34abc04b432b59807","Negative","Positive","DOWN",0
"","","","","","moving-image",52,261801,"0.0-5.1-0.35-0.35",3202,"","","LEFT",1000,-1.06666,1000,4.93333,3.86667,"d","false","a",1001,2002,3202,1200,"false","false","60c47bdfde98f62c0f688ae3","649333f3a54f0d623a537f0c","649334b34abc04b432b59807","Negative","Positive","ACCELERATING",1
"","","","","","moving-image",53,265222,"0.0-5.1-0.36-0.36",2915,"","","UP",1000,-3.2,1000,6,2.8,"d","true","d",1001,2002,2915,913,"false","false","60c47bdfde98f62c0f688ae3","649333f3a54f0d623a537f0c","649334b34abc04b432b59807","Negative","Positive","UP",0
"","","","","","moving-image",54,268991,"0.0-5.1-0.37-0.37",3263,"","","LEFT",1500,-2.1,1000,4.50833333333333,1.35833333333333,"d","true","d",1002,2481,3263,782,"false","false","60c47bdfde98f62c0f688ae3","649333f3a54f0d623a537f0c","649334b34abc04b432b59807","Negative","Positive","ACCELERATING",0
"","","","","","moving-image",55,272656,"0.0-5.1-0.38-0.38",3161,"","","DOWN",1500,-1.06666,1000,3.73332833333333,2.13333833333333,"d","true","d",1002,2482,3161,679,"false","false","60c47bdfde98f62c0f688ae3","649333f3a54f0d623a537f0c","649334b34abc04b432b59807","Negative","Positive","DOWN",0
"","","","","","moving-image",56,276334,"0.0-5.1-0.39-0.39",3173,"","","LEFT",1500,2.1,1000,1.35833333333333,4.50833333333333,"a","true","a",1000,2497,3174,677,"false","false","60c47bdfde98f62c0f688ae3","649333f3a54f0d623a537f0c","649334b34abc04b432b59807","Negative","Positive","ACCELERATING",1
"","","","","","moving-image",57,279536,"0.0-5.1-0.40-0.40",2697,"","","UP",1000,-1.6,1000,5.2,3.6,"d","false","a",1000,2002,2697,695,"false","false","60c47bdfde98f62c0f688ae3","649333f3a54f0d623a537f0c","649334b34abc04b432b59807","Negative","Positive","UP",1
"","","","","","moving-image",58,283277,"0.0-5.1-0.41-0.41",3234,"","","RIGHT",1500,0.7,1000,2.40833333333333,3.45833333333333,"a","true","a",1001,2497,3234,737,"false","false","60c47bdfde98f62c0f688ae3","649333f3a54f0d623a537f0c","649334b34abc04b432b59807","Negative","Positive","DECELERATING",1
"","","","","","moving-image",59,286541,"0.0-5.1-0.42-0.42",2760,"","","UP",1000,-1.6,1000,5.2,3.6,"d","false","a",1001,2000,2760,760,"false","false","60c47bdfde98f62c0f688ae3","649333f3a54f0d623a537f0c","649334b34abc04b432b59807","Negative","Positive","UP",1
"","","","","","moving-image",60,289850,"0.0-5.1-0.43-0.43",2802,"","","RIGHT",1500,-2.1,1000,4.50833333333333,1.35833333333333,"d","true","d",1000,2480,2801,321,"false","false","60c47bdfde98f62c0f688ae3","649333f3a54f0d623a537f0c","649334b34abc04b432b59807","Negative","Positive","DECELERATING",0
"","","","","","moving-image",61,293272,"0.0-5.1-0.44-0.44",2914,"","","UP",1500,-1.4,1000,3.98333333333333,1.88333333333333,"d","true","d",1001,2482,2914,432,"false","false","60c47bdfde98f62c0f688ae3","649333f3a54f0d623a537f0c","649334b34abc04b432b59807","Negative","Positive","UP",0
"","","","","","moving-image",62,296615,"0.0-5.1-0.45-0.45",2839,"","","RIGHT",1500,-1.06666,1000,3.73332833333333,2.13333833333333,"d","true","d",1001,2496,2839,343,"false","false","60c47bdfde98f62c0f688ae3","649333f3a54f0d623a537f0c","649334b34abc04b432b59807","Negative","Positive","DECELERATING",0
"","","","","","moving-image",63,300096,"0.0-5.1-0.46-0.46",2976,"","","DOWN",1500,2.1,1000,1.35833333333333,4.50833333333333,"a","true","a",1000,2496,2975,479,"false","false","60c47bdfde98f62c0f688ae3","649333f3a54f0d623a537f0c","649334b34abc04b432b59807","Negative","Positive","DOWN",1
"","","","","","moving-image",64,303298,"0.0-5.1-0.47-0.47",2696,"","","LEFT",1000,3.2,1000,2.8,6,"a","true","a",1001,2000,2695,695,"false","false","60c47bdfde98f62c0f688ae3","649333f3a54f0d623a537f0c","649334b34abc04b432b59807","Negative","Positive","ACCELERATING",1
"","","","","","moving-image",65,306878,"0.0-5.1-0.48-0.48",3072,"","","UP",1000,1.06666,1000,3.86667,4.93333,"a","true","a",1001,2002,3072,1070,"false","false","60c47bdfde98f62c0f688ae3","649333f3a54f0d623a537f0c","649334b34abc04b432b59807","Negative","Positive","UP",1
"","","","","","moving-image",66,310268,"0.0-5.1-0.49-0.49",2885,"","","RIGHT",1500,-2.1,1000,4.50833333333333,1.35833333333333,"d","true","d",1000,2481,2885,404,"false","false","60c47bdfde98f62c0f688ae3","649333f3a54f0d623a537f0c","649334b34abc04b432b59807","Negative","Positive","DECELERATING",0
"","","","","","moving-image",68,333459,"0.0-5.2-0.50-0.50",2224,"","","DOWN",1000,1.6,1000,3.6,5.2,"a","true","a",1002,2001,2224,223,"false","false","60c47bdfde98f62c0f688ae3","649333f3a54f0d623a537f0c","649334b34abc04b432b59807","Negative","Positive","DOWN",1
"","","","","","moving-image",69,336790,"0.0-5.2-0.51-0.51",2827,"","","RIGHT",1500,-2.8,1000,5.03333333333333,0.833333333333334,"d","true","d",1001,2464,2827,363,"false","false","60c47bdfde98f62c0f688ae3","649333f3a54f0d623a537f0c","649334b34abc04b432b59807","Negative","Positive","DECELERATING",0
"","","","","","moving-image",71,343212,"0.0-5.2-0.53-0.53",2958,"","","LEFT",1500,0.7,1000,2.40833333333333,3.45833333333333,"a","false","d",1001,2497,2958,461,"false","false","60c47bdfde98f62c0f688ae3","649333f3a54f0d623a537f0c","649334b34abc04b432b59807","Negative","Positive","ACCELERATING",0
"","","","","","moving-image",72,346667,"0.0-5.2-0.54-0.54",2949,"","","UP",1500,2.8,1000,0.833333333333334,5.03333333333333,"a","true","a",1000,2496,2949,453,"false","false","60c47bdfde98f62c0f688ae3","649333f3a54f0d623a537f0c","649334b34abc04b432b59807","Negative","Positive","UP",1
"","","","","","moving-image",73,349627,"0.0-5.2-0.55-0.55",2455,"","","RIGHT",1000,-3.2,1000,6,2.8,"d","false","a",1001,2002,2455,453,"false","false","60c47bdfde98f62c0f688ae3","649333f3a54f0d623a537f0c","649334b34abc04b432b59807","Negative","Positive","DECELERATING",1
"","","","","","moving-image",74,352717,"0.0-5.2-0.56-0.56",2582,"","","UP",1000,3.2,1000,2.8,6,"a","true","a",1000,2001,2582,581,"false","false","60c47bdfde98f62c0f688ae3","649333f3a54f0d623a537f0c","649334b34abc04b432b59807","Negative","Positive","UP",1
"","","","","","moving-image",75,356375,"0.0-5.2-0.57-0.57",3153,"","","LEFT",1500,2.8,1000,0.833333333333334,5.03333333333333,"a","false","d",1002,2497,3153,656,"false","false","60c47bdfde98f62c0f688ae3","649333f3a54f0d623a537f0c","649334b34abc04b432b59807","Negative","Positive","ACCELERATING",0
"","","","","","moving-image",76,360002,"0.0-5.2-0.58-0.58",3121,"","","DOWN",1500,-1.4,1000,3.98333333333333,1.88333333333333,"d","true","d",1001,2482,3121,639,"false","false","60c47bdfde98f62c0f688ae3","649333f3a54f0d623a537f0c","649334b34abc04b432b59807","Negative","Positive","DOWN",0
"","","","","","moving-image",77,363487,"0.0-5.2-0.59-0.59",2982,"","","RIGHT",1500,-2.8,1000,5.03333333333333,0.833333333333334,"d","true","d",1001,2465,2982,517,"false","false","60c47bdfde98f62c0f688ae3","649333f3a54f0d623a537f0c","649334b34abc04b432b59807","Negative","Positive","DECELERATING",0
"","","","","","moving-image",78,367522,"0.0-5.2-0.60-0.60",3530,"","","DOWN",1500,0,1000,2.93333333333333,2.93333333333333,"d","true","d",1001,2497,3530,1033,"false","false","60c47bdfde98f62c0f688ae3","649333f3a54f0d623a537f0c","649334b34abc04b432b59807","Negative","Positive","DOWN",0
"","","","","","moving-image",79,371017,"0.0-5.2-0.61-0.61",2991,"","","RIGHT",1500,-3.54,1000,5.58833333333333,0.278333333333333,"d","true","d",1001,2417,2990,573,"false","false","60c47bdfde98f62c0f688ae3","649333f3a54f0d623a537f0c","649334b34abc04b432b59807","Negative","Positive","DECELERATING",0
"","","","","","moving-image",80,374416,"0.0-5.2-0.62-0.62",2895,"","","UP",1500,-2.1,1000,4.50833333333333,1.35833333333333,"d","true","d",1001,2481,2895,414,"false","false","60c47bdfde98f62c0f688ae3","649333f3a54f0d623a537f0c","649334b34abc04b432b59807","Negative","Positive","UP",0
"","","","","","moving-image",81,377988,"0.0-5.2-0.63-0.63",3067,"","","LEFT",1500,-2.8,1000,5.03333333333333,0.833333333333334,"d","true","d",1001,2466,3068,602,"false","false","60c47bdfde98f62c0f688ae3","649333f3a54f0d623a537f0c","649334b34abc04b432b59807","Negative","Positive","ACCELERATING",0
"","","","","","moving-image",82,382020,"0.0-5.2-0.64-0.64",3526,"","","DOWN",1500,0.7,1000,2.40833333333333,3.45833333333333,"a","true","a",1002,2497,3526,1029,"false","false","60c47bdfde98f62c0f688ae3","649333f3a54f0d623a537f0c","649334b34abc04b432b59807","Negative","Positive","DOWN",1
"","","","","","moving-image",83,385399,"0.0-5.2-0.65-0.65",2873,"","","RIGHT",1000,-3.2,1000,6,2.8,"d","false","a",1002,2002,2873,871,"false","false","60c47bdfde98f62c0f688ae3","649333f3a54f0d623a537f0c","649334b34abc04b432b59807","Negative","Positive","DECELERATING",1
"","","","","","moving-image",84,389132,"0.0-5.2-0.66-0.66",3228,"","","DOWN",1500,-1.4,1000,3.98333333333333,1.88333333333333,"d","true","d",1000,2482,3227,745,"false","false","60c47bdfde98f62c0f688ae3","649333f3a54f0d623a537f0c","649334b34abc04b432b59807","Negative","Positive","DOWN",0
"","","","","","moving-image",85,393084,"0.0-5.2-0.67-0.67",3448,"","","RIGHT",1500,-0.7,1000,3.45833333333333,2.40833333333333,"d","true","d",1001,2496,3447,951,"false","false","60c47bdfde98f62c0f688ae3","649333f3a54f0d623a537f0c","649334b34abc04b432b59807","Negative","Positive","DECELERATING",0
"","","","","","moving-image",86,396860,"0.0-5.2-0.68-0.68",3271,"","","UP",1500,1.06666,1000,2.13333833333333,3.73332833333333,"a","true","a",1001,2497,3271,774,"false","false","60c47bdfde98f62c0f688ae3","649333f3a54f0d623a537f0c","649334b34abc04b432b59807","Negative","Positive","UP",1
"","","","","","moving-image",87,400611,"0.0-5.2-0.69-0.69",3244,"","","LEFT",1500,1.06666,1000,2.13333833333333,3.73332833333333,"a","false","d",1001,2498,3244,746,"false","false","60c47bdfde98f62c0f688ae3","649333f3a54f0d623a537f0c","649334b34abc04b432b59807","Negative","Positive","ACCELERATING",0
"","","","","","moving-image",88,404485,"0.0-5.2-0.70-0.70",3369,"","","DOWN",1500,1.4,1000,1.88333333333333,3.98333333333333,"a","true","a",1002,2497,3370,873,"false","false","60c47bdfde98f62c0f688ae3","649333f3a54f0d623a537f0c","649334b34abc04b432b59807","Negative","Positive","DOWN",1
"","","","","","moving-image",89,408054,"0.0-5.2-0.71-0.71",3063,"","","LEFT",1500,0,1000,2.93333333333333,2.93333333333333,"d","false","a",1002,2498,3063,565,"false","false","60c47bdfde98f62c0f688ae3","649333f3a54f0d623a537f0c","649334b34abc04b432b59807","Negative","Positive","ACCELERATING",1
"","","","","","moving-image",90,411545,"0.0-5.2-0.72-0.72",2985,"","","DOWN",1500,-2.8,1000,5.03333333333333,0.833333333333334,"d","true","d",1001,2465,2985,520,"false","false","60c47bdfde98f62c0f688ae3","649333f3a54f0d623a537f0c","649334b34abc04b432b59807","Negative","Positive","DOWN",0
"","","","","","moving-image",91,415031,"0.0-5.2-0.73-0.73",2981,"","","LEFT",1500,2.1,1000,1.35833333333333,4.50833333333333,"a","true","a",1000,2495,2979,484,"false","false","60c47bdfde98f62c0f688ae3","649333f3a54f0d623a537f0c","649334b34abc04b432b59807","Negative","Positive","ACCELERATING",1
"","","","","","moving-image",92,418082,"0.0-5.2-0.74-0.74",2545,"","","UP",1000,1.06666,1000,3.86667,4.93333,"a","true","a",1001,2002,2545,543,"false","false","60c47bdfde98f62c0f688ae3","649333f3a54f0d623a537f0c","649334b34abc04b432b59807","Negative","Positive","UP",1
"","","","","","moving-image",94,438776,"0.0-5.3-0.75-0.75",2595,"","","LEFT",1500,1.06666,1000,2.13333833333333,3.73332833333333,"a","false","d",1000,2497,2595,98,"false","false","60c47bdfde98f62c0f688ae3","649333f3a54f0d623a537f0c","649334b34abc04b432b59807","Negative","Positive","ACCELERATING",0
"","","","","","moving-image",96,445048,"0.0-5.3-0.77-0.77",3037,"","","RIGHT",1500,3.54,1000,0.278333333333333,5.58833333333333,"a","true","a",1001,2498,3037,539,"false","false","60c47bdfde98f62c0f688ae3","649333f3a54f0d623a537f0c","649334b34abc04b432b59807","Negative","Positive","DECELERATING",1
"","","","","","moving-image",97,448404,"0.0-5.3-0.78-0.78",2851,"","","UP",1500,-1.4,1000,3.98333333333333,1.88333333333333,"d","true","d",1000,2480,2851,371,"false","false","60c47bdfde98f62c0f688ae3","649333f3a54f0d623a537f0c","649334b34abc04b432b59807","Negative","Positive","UP",0
"","","","","","moving-image",98,451802,"0.0-5.3-0.79-0.79",2890,"","","LEFT",1500,2.8,1000,0.833333333333334,5.03333333333333,"a","true","a",1001,2497,2890,393,"false","false","60c47bdfde98f62c0f688ae3","649333f3a54f0d623a537f0c","649334b34abc04b432b59807","Negative","Positive","ACCELERATING",1
"","","","","","moving-image",100,458218,"0.0-5.3-0.81-0.81",2951,"","","LEFT",1500,1.4,1000,1.88333333333333,3.98333333333333,"a","true","a",1001,2497,2951,454,"false","false","60c47bdfde98f62c0f688ae3","649333f3a54f0d623a537f0c","649334b34abc04b432b59807","Negative","Positive","ACCELERATING",1
"","","","","","moving-image",102,464679,"0.0-5.3-0.83-0.83",3071,"","","LEFT",1000,-1.06666,1000,4.93333,3.86667,"d","false","a",1001,2001,3071,1070,"false","false","60c47bdfde98f62c0f688ae3","649333f3a54f0d623a537f0c","649334b34abc04b432b59807","Negative","Positive","ACCELERATING",1
"","","","","","moving-image",103,467659,"0.0-5.3-0.84-0.84",2475,"","","DOWN",1000,0,1000,4.4,4.4,"d","false","a",1000,2000,2474,474,"false","false","60c47bdfde98f62c0f688ae3","649333f3a54f0d623a537f0c","649334b34abc04b432b59807","Negative","Positive","DOWN",1
"","","","","","moving-image",104,470623,"0.0-5.3-0.85-0.85",2457,"","","LEFT",1000,1.6,1000,3.6,5.2,"a","true","a",1000,2000,2457,457,"false","false","60c47bdfde98f62c0f688ae3","649333f3a54f0d623a537f0c","649334b34abc04b432b59807","Negative","Positive","ACCELERATING",1
"","","","","","moving-image",105,474047,"0.0-5.3-0.86-0.86",2915,"","","UP",1500,1.4,1000,1.88333333333333,3.98333333333333,"a","false","d",1002,2499,2916,417,"false","false","60c47bdfde98f62c0f688ae3","649333f3a54f0d623a537f0c","649334b34abc04b432b59807","Negative","Positive","UP",0
"","","","","","moving-image",106,478071,"0.0-5.3-0.87-0.87",3518,"","","LEFT",1500,2.1,1000,1.35833333333333,4.50833333333333,"a","false","d",1001,2497,3518,1021,"false","false","60c47bdfde98f62c0f688ae3","649333f3a54f0d623a537f0c","649334b34abc04b432b59807","Negative","Positive","ACCELERATING",0
"","","","","","moving-image",107,481202,"0.0-5.3-0.88-0.88",2627,"","","DOWN",1000,0,1000,4.4,4.4,"d","false","a",1000,2000,2626,626,"false","false","60c47bdfde98f62c0f688ae3","649333f3a54f0d623a537f0c","649334b34abc04b432b59807","Negative","Positive","DOWN",1
"","","","","","moving-image",108,484930,"0.0-5.3-0.89-0.89",3222,"","","RIGHT",1500,-0.7,1000,3.45833333333333,2.40833333333333,"d","true","d",1000,2498,3222,724,"false","false","60c47bdfde98f62c0f688ae3","649333f3a54f0d623a537f0c","649334b34abc04b432b59807","Negative","Positive","DECELERATING",0
"","","","","","moving-image",109,488768,"0.0-5.3-0.90-0.90",3329,"","","UP",1500,-1.06666,1000,3.73332833333333,2.13333833333333,"d","true","d",1000,2482,3329,847,"false","false","60c47bdfde98f62c0f688ae3","649333f3a54f0d623a537f0c","649334b34abc04b432b59807","Negative","Positive","UP",0
"","","","","","moving-image",110,492292,"0.0-5.3-0.91-0.91",3018,"","","RIGHT",1000,1.06666,1000,3.86667,4.93333,"a","true","a",1001,2002,3018,1016,"false","false","60c47bdfde98f62c0f688ae3","649333f3a54f0d623a537f0c","649334b34abc04b432b59807","Negative","Positive","DECELERATING",1
"","","","","","moving-image",111,495667,"0.0-5.3-0.92-0.92",2869,"","","UP",1500,2.1,1000,1.35833333333333,4.50833333333333,"a","true","a",1000,2497,2869,372,"false","false","60c47bdfde98f62c0f688ae3","649333f3a54f0d623a537f0c","649334b34abc04b432b59807","Negative","Positive","UP",1
"","","","","","moving-image",112,498798,"0.0-5.3-0.93-0.93",2625,"","","RIGHT",1000,1.6,1000,3.6,5.2,"a","true","a",1001,2001,2626,625,"false","false","60c47bdfde98f62c0f688ae3","649333f3a54f0d623a537f0c","649334b34abc04b432b59807","Negative","Positive","DECELERATING",1
"","","","","","moving-image",113,502444,"0.0-5.3-0.94-0.94",3141,"","","UP",1500,2.1,1000,1.35833333333333,4.50833333333333,"a","true","a",1000,2497,3140,643,"false","false","60c47bdfde98f62c0f688ae3","649333f3a54f0d623a537f0c","649334b34abc04b432b59807","Negative","Positive","UP",1
"","","","","","moving-image",114,505517,"0.0-5.3-0.95-0.95",2566,"","","LEFT",1000,3.2,1000,2.8,6,"a","true","a",1001,2002,2566,564,"false","false","60c47bdfde98f62c0f688ae3","649333f3a54f0d623a537f0c","649334b34abc04b432b59807","Negative","Positive","ACCELERATING",1
"","","","","","moving-image",115,509008,"0.0-5.3-0.96-0.96",2983,"","","UP",1500,1.06666,1000,2.13333833333333,3.73332833333333,"a","false","d",1001,2498,2983,485,"false","false","60c47bdfde98f62c0f688ae3","649333f3a54f0d623a537f0c","649334b34abc04b432b59807","Negative","Positive","UP",0
"","","","","","moving-image",116,512725,"0.0-5.3-0.97-0.97",3210,"","","LEFT",1500,3.54,1000,0.278333333333333,5.58833333333333,"a","true","a",1001,2497,3210,713,"false","false","60c47bdfde98f62c0f688ae3","649333f3a54f0d623a537f0c","649334b34abc04b432b59807","Negative","Positive","ACCELERATING",1
"","","","","","moving-image",120,540522,"0.0-5.4-0.100-0.100",2784,"","","DOWN",1500,-1.06666,1000,3.73332833333333,2.13333833333333,"d","true","d",1000,2482,2784,302,"false","false","60c47bdfde98f62c0f688ae3","649333f3a54f0d623a537f0c","649334b34abc04b432b59807","Negative","Positive","DOWN",0
"","","","","","moving-image",121,543958,"0.0-5.4-0.101-0.101",2930,"","","LEFT",1500,3.54,1000,0.278333333333333,5.58833333333333,"a","true","a",1001,2497,2929,432,"false","false","60c47bdfde98f62c0f688ae3","649333f3a54f0d623a537f0c","649334b34abc04b432b59807","Negative","Positive","ACCELERATING",1
"","","","","","moving-image",122,547389,"0.0-5.4-0.102-0.102",2923,"","","UP",1500,-0.7,1000,3.45833333333333,2.40833333333333,"d","true","d",1000,2496,2923,427,"false","false","60c47bdfde98f62c0f688ae3","649333f3a54f0d623a537f0c","649334b34abc04b432b59807","Negative","Positive","UP",0
"","","","","","moving-image",123,550403,"0.0-5.4-0.103-0.103",2507,"","","RIGHT",1000,-1.06666,1000,4.93333,3.86667,"d","false","a",1001,2000,2507,507,"false","false","60c47bdfde98f62c0f688ae3","649333f3a54f0d623a537f0c","649334b34abc04b432b59807","Negative","Positive","DECELERATING",1
"","","","","","moving-image",124,553462,"0.0-5.4-0.104-0.104",2551,"","","DOWN",1000,-1.06666,1000,4.93333,3.86667,"d","false","a",1000,2001,2551,550,"false","false","60c47bdfde98f62c0f688ae3","649333f3a54f0d623a537f0c","649334b34abc04b432b59807","Negative","Positive","DOWN",1
"","","","","","moving-image",125,556789,"0.0-5.4-0.105-0.105",2820,"","","RIGHT",1000,-1.6,1000,5.2,3.6,"d","false","a",1002,2001,2821,820,"false","false","60c47bdfde98f62c0f688ae3","649333f3a54f0d623a537f0c","649334b34abc04b432b59807","Negative","Positive","DECELERATING",1
"","","","","","moving-image",126,560283,"0.0-5.4-0.106-0.106",2986,"","","DOWN",1500,0.7,1000,2.40833333333333,3.45833333333333,"a","false","d",1001,2497,2987,490,"false","false","60c47bdfde98f62c0f688ae3","649333f3a54f0d623a537f0c","649334b34abc04b432b59807","Negative","Positive","DOWN",0
"","","","","","moving-image",127,563482,"0.0-5.4-0.107-0.107",2693,"","","RIGHT",1000,-3.2,1000,6,2.8,"d","false","a",1002,1986,2694,708,"false","false","60c47bdfde98f62c0f688ae3","649333f3a54f0d623a537f0c","649334b34abc04b432b59807","Negative","Positive","DECELERATING",1
"","","","","","moving-image",128,566377,"0.0-5.4-0.108-0.108",2390,"","","UP",1000,1.6,1000,3.6,5.2,"a","true","a",1000,2000,2390,390,"false","false","60c47bdfde98f62c0f688ae3","649333f3a54f0d623a537f0c","649334b34abc04b432b59807","Negative","Positive","UP",1
"","","","","","moving-image",129,569621,"0.0-5.4-0.109-0.109",2737,"","","RIGHT",1000,-1.6,1000,5.2,3.6,"d","false","a",1001,2002,2737,735,"false","false","60c47bdfde98f62c0f688ae3","649333f3a54f0d623a537f0c","649334b34abc04b432b59807","Negative","Positive","DECELERATING",1
"","","","","","moving-image",130,573019,"0.0-5.4-0.110-0.110",2891,"","","DOWN",1500,0,1000,2.93333333333333,2.93333333333333,"d","true","d",1000,2497,2891,394,"false","false","60c47bdfde98f62c0f688ae3","649333f3a54f0d623a537f0c","649334b34abc04b432b59807","Negative","Positive","DOWN",0
"","","","","","moving-image",131,576331,"0.0-5.4-0.111-0.111",2804,"","","LEFT",1000,3.2,1000,2.8,6,"a","false","d",1000,2000,2804,804,"false","false","60c47bdfde98f62c0f688ae3","649333f3a54f0d623a537f0c","649334b34abc04b432b59807","Negative","Positive","ACCELERATING",0
"","","","","","moving-image",132,579788,"0.0-5.4-0.112-0.112",2952,"","","UP",1500,-2.1,1000,4.50833333333333,1.35833333333333,"d","true","d",1002,2481,2952,471,"false","false","60c47bdfde98f62c0f688ae3","649333f3a54f0d623a537f0c","649334b34abc04b432b59807","Negative","Positive","UP",0
"","","","","","moving-image",133,583302,"0.0-5.4-0.113-0.113",3007,"","","LEFT",1500,0.7,1000,2.40833333333333,3.45833333333333,"a","false","d",1002,2497,3007,510,"false","false","60c47bdfde98f62c0f688ae3","649333f3a54f0d623a537f0c","649334b34abc04b432b59807","Negative","Positive","ACCELERATING",0
"","","","","","moving-image",134,586546,"0.0-5.4-0.114-0.114",2737,"","","UP",1500,-3.54,1000,5.58833333333333,0.278333333333333,"d","true","d",1002,2416,2737,321,"false","false","60c47bdfde98f62c0f688ae3","649333f3a54f0d623a537f0c","649334b34abc04b432b59807","Negative","Positive","UP",0
"","","","","","moving-image",135,590025,"0.0-5.4-0.115-0.115",2973,"","","RIGHT",1000,0,1000,4.4,4.4,"d","false","a",1000,2001,2973,972,"false","false","60c47bdfde98f62c0f688ae3","649333f3a54f0d623a537f0c","649334b34abc04b432b59807","Negative","Positive","DECELERATING",1
"","","","","","moving-image",136,593426,"0.0-5.4-0.116-0.116",2892,"","","DOWN",1500,-1.06666,1000,3.73332833333333,2.13333833333333,"d","true","d",1000,2497,2891,394,"false","false","60c47bdfde98f62c0f688ae3","649333f3a54f0d623a537f0c","649334b34abc04b432b59807","Negative","Positive","DOWN",0
"","","","","","moving-image",137,596704,"0.0-5.4-0.117-0.117",2770,"","","RIGHT",1000,1.06666,1000,3.86667,4.93333,"a","true","a",1002,2001,2770,769,"false","false","60c47bdfde98f62c0f688ae3","649333f3a54f0d623a537f0c","649334b34abc04b432b59807","Negative","Positive","DECELERATING",1
"","","","","","moving-image",138,599967,"0.0-5.4-0.118-0.118",2755,"","","UP",1000,1.6,1000,3.6,5.2,"a","true","a",1002,2001,2756,755,"false","false","60c47bdfde98f62c0f688ae3","649333f3a54f0d623a537f0c","649334b34abc04b432b59807","Negative","Positive","UP",1
"","","","","","moving-image",139,604194,"0.0-5.4-0.119-0.119",3720,"","","RIGHT",1500,1.06666,1000,2.13333833333333,3.73332833333333,"a","false","d",1001,2498,3720,1222,"false","false","60c47bdfde98f62c0f688ae3","649333f3a54f0d623a537f0c","649334b34abc04b432b59807","Negative","Positive","DECELERATING",0
"","","","","","moving-image",140,607550,"0.0-5.4-0.120-0.120",2850,"","","DOWN",1500,-3.54,1000,5.58833333333333,0.278333333333333,"d","true","d",1001,2418,2850,432,"false","false","60c47bdfde98f62c0f688ae3","649333f3a54f0d623a537f0c","649334b34abc04b432b59807","Negative","Positive","DOWN",0
"","","","","","moving-image",141,611725,"0.0-5.4-0.121-0.121",3668,"","","LEFT",1500,2.8,1000,0.833333333333334,5.03333333333333,"a","false","d",1001,2498,3668,1170,"false","false","60c47bdfde98f62c0f688ae3","649333f3a54f0d623a537f0c","649334b34abc04b432b59807","Negative","Positive","ACCELERATING",0
"","","","","","moving-image",142,615700,"0.0-5.4-0.122-0.122",3466,"","","UP",1500,-0.7,1000,3.45833333333333,2.40833333333333,"d","true","d",1001,2497,3467,970,"false","false","60c47bdfde98f62c0f688ae3","649333f3a54f0d623a537f0c","649334b34abc04b432b59807","Negative","Positive","UP",0
"","","","","","moving-image",143,619789,"0.0-5.4-0.123-0.123",3580,"","","LEFT",1500,-0.7,1000,3.45833333333333,2.40833333333333,"d","true","d",1000,2498,3580,1082,"false","false","60c47bdfde98f62c0f688ae3","649333f3a54f0d623a537f0c","649334b34abc04b432b59807","Negative","Positive","ACCELERATING",0
"","","","","","moving-image",144,623390,"0.0-5.4-0.124-0.124",3092,"","","DOWN",1500,1.4,1000,1.88333333333333,3.98333333333333,"a","true","a",1000,2497,3092,595,"false","false","60c47bdfde98f62c0f688ae3","649333f3a54f0d623a537f0c","649334b34abc04b432b59807","Negative","Positive","DOWN",1
"","","","","","moving-image",146,637540,"0.0-5.5-0.125-0.125",2674,"","","RIGHT",1500,-2.8,1000,5.03333333333333,0.833333333333334,"d","true","d",1002,2466,2674,208,"false","false","60c47bdfde98f62c0f688ae3","649333f3a54f0d623a537f0c","649334b34abc04b432b59807","Negative","Positive","DECELERATING",0
"","","","","","moving-image",147,640728,"0.0-5.5-0.126-0.126",2676,"","","DOWN",1500,-3.54,1000,5.58833333333333,0.278333333333333,"d","true","d",1000,2417,2676,259,"false","false","60c47bdfde98f62c0f688ae3","649333f3a54f0d623a537f0c","649334b34abc04b432b59807","Negative","Positive","DOWN",0
"","","","","","moving-image",148,644710,"0.0-5.5-0.127-0.127",3474,"","","LEFT",1500,-1.06666,1000,3.73332833333333,2.13333833333333,"d","true","d",1001,2498,3474,976,"false","false","60c47bdfde98f62c0f688ae3","649333f3a54f0d623a537f0c","649334b34abc04b432b59807","Negative","Positive","ACCELERATING",0
"","","","","","moving-image",149,647797,"0.0-5.5-0.128-0.128",2580,"","","DOWN",1000,0,1000,4.4,4.4,"d","false","a",1001,2000,2579,579,"false","false","60c47bdfde98f62c0f688ae3","649333f3a54f0d623a537f0c","649334b34abc04b432b59807","Negative","Positive","DOWN",1
"","","","","","moving-image",151,654327,"0.0-5.5-0.130-0.130",2911,"","","UP",1500,0.7,1000,2.40833333333333,3.45833333333333,"a","false","d",1001,2497,2911,414,"false","false","60c47bdfde98f62c0f688ae3","649333f3a54f0d623a537f0c","649334b34abc04b432b59807","Negative","Positive","UP",0
"","","","","","moving-image",152,657596,"0.0-5.5-0.131-0.131",2762,"","","RIGHT",1500,-2.1,1000,4.50833333333333,1.35833333333333,"d","true","d",1001,2480,2763,283,"false","false","60c47bdfde98f62c0f688ae3","649333f3a54f0d623a537f0c","649334b34abc04b432b59807","Negative","Positive","DECELERATING",0
"","","","","","moving-image",154,664497,"0.0-5.5-0.133-0.133",3236,"","","RIGHT",1500,0,1000,2.93333333333333,2.93333333333333,"d","true","d",1000,2497,3237,740,"false","false","60c47bdfde98f62c0f688ae3","649333f3a54f0d623a537f0c","649334b34abc04b432b59807","Negative","Positive","DECELERATING",0
"","","","","","moving-image",155,667713,"0.0-5.5-0.134-0.134",2709,"","","UP",1000,-1.06666,1000,4.93333,3.86667,"d","false","a",1002,2000,2709,709,"false","false","60c47bdfde98f62c0f688ae3","649333f3a54f0d623a537f0c","649334b34abc04b432b59807","Negative","Positive","UP",1
"","","","","","moving-image",157,674250,"0.0-5.5-0.136-0.136",2808,"","","UP",1500,-2.8,1000,5.03333333333333,0.833333333333334,"d","true","d",1002,2465,2808,343,"false","false","60c47bdfde98f62c0f688ae3","649333f3a54f0d623a537f0c","649334b34abc04b432b59807","Negative","Positive","UP",0
"","","","","","moving-image",158,677999,"0.0-5.5-0.137-0.137",3242,"","","LEFT",1500,2.8,1000,0.833333333333334,5.03333333333333,"a","true","a",1002,2497,3242,745,"false","false","60c47bdfde98f62c0f688ae3","649333f3a54f0d623a537f0c","649334b34abc04b432b59807","Negative","Positive","ACCELERATING",1
"","","","","","moving-image",159,681914,"0.0-5.5-0.138-0.138",3408,"","","UP",1500,0,1000,2.93333333333333,2.93333333333333,"d","true","d",1001,2496,3408,912,"false","false","60c47bdfde98f62c0f688ae3","649333f3a54f0d623a537f0c","649334b34abc04b432b59807","Negative","Positive","UP",0
"","","","","","moving-image",161,688763,"0.0-5.5-0.140-0.140",3096,"","","DOWN",1500,-2.1,1000,4.50833333333333,1.35833333333333,"d","true","d",1001,2482,3096,614,"false","false","60c47bdfde98f62c0f688ae3","649333f3a54f0d623a537f0c","649334b34abc04b432b59807","Negative","Positive","DOWN",0
"","","","","","moving-image",162,692059,"0.0-5.5-0.141-0.141",2787,"","","LEFT",1500,-1.4,1000,3.98333333333333,1.88333333333333,"d","true","d",1002,2481,2787,306,"false","false","60c47bdfde98f62c0f688ae3","649333f3a54f0d623a537f0c","649334b34abc04b432b59807","Negative","Positive","ACCELERATING",0
"","","","","","moving-image",163,695528,"0.0-5.5-0.142-0.142",2961,"","","UP",1500,-0.7,1000,3.45833333333333,2.40833333333333,"d","true","d",1000,2496,2961,465,"false","false","60c47bdfde98f62c0f688ae3","649333f3a54f0d623a537f0c","649334b34abc04b432b59807","Negative","Positive","UP",0
"","","","","","moving-image",164,698974,"0.0-5.5-0.143-0.143",2938,"","","RIGHT",1500,1.4,1000,1.88333333333333,3.98333333333333,"a","true","a",1000,2497,2937,440,"false","false","60c47bdfde98f62c0f688ae3","649333f3a54f0d623a537f0c","649334b34abc04b432b59807","Negative","Positive","DECELERATING",1
"","","","","","moving-image",165,702469,"0.0-5.5-0.144-0.144",2987,"","","UP",1500,0.7,1000,2.40833333333333,3.45833333333333,"a","true","a",1002,2497,2987,490,"false","false","60c47bdfde98f62c0f688ae3","649333f3a54f0d623a537f0c","649334b34abc04b432b59807","Negative","Positive","UP",1
"","","","","","moving-image",166,705616,"0.0-5.5-0.145-0.145",2638,"","","RIGHT",1000,-1.6,1000,5.2,3.6,"d","false","a",1002,2001,2639,638,"false","false","60c47bdfde98f62c0f688ae3","649333f3a54f0d623a537f0c","649334b34abc04b432b59807","Negative","Positive","DECELERATING",1
"","","","","","moving-image",167,708480,"0.0-5.5-0.146-0.146",2354,"","","DOWN",1000,3.2,1000,2.8,6,"a","true","a",1000,2002,2353,351,"false","false","60c47bdfde98f62c0f688ae3","649333f3a54f0d623a537f0c","649334b34abc04b432b59807","Negative","Positive","DOWN",1
"","","","","","moving-image",169,714810,"0.0-5.5-0.148-0.148",2963,"","","UP",1500,-1.06666,1000,3.73332833333333,2.13333833333333,"d","true","d",1001,2498,2963,465,"false","false","60c47bdfde98f62c0f688ae3","649333f3a54f0d623a537f0c","649334b34abc04b432b59807","Negative","Positive","UP",0
"","","","","","moving-image",170,718133,"0.0-5.5-0.149-0.149",2815,"","","LEFT",1000,-3.2,1000,6,2.8,"d","true","d",1002,1986,2815,829,"false","false","60c47bdfde98f62c0f688ae3","649333f3a54f0d623a537f0c","649334b34abc04b432b59807","Negative","Positive","ACCELERATING",0
"","","","","","moving-image",172,723535,"0.0-5.6-0.150-0.150",3250,"","","DOWN",1500,0.7,1000,2.40833333333333,3.45833333333333,"a","false","d",1000,2498,3250,752,"false","false","60c47bdfde98f62c0f688ae3","649333f3a54f0d623a537f0c","649334b34abc04b432b59807","Negative","Positive","DOWN",0
"","","","","","moving-image",173,727651,"0.0-5.6-0.151-0.151",3605,"","","RIGHT",1500,0.7,1000,2.40833333333333,3.45833333333333,"a","false","d",1001,2498,3605,1107,"false","false","60c47bdfde98f62c0f688ae3","649333f3a54f0d623a537f0c","649334b34abc04b432b59807","Negative","Positive","DECELERATING",0
"","","","","","moving-image",174,731732,"0.0-5.6-0.152-0.152",3573,"","","UP",1500,0,1000,2.93333333333333,2.93333333333333,"d","true","d",1001,2497,3573,1076,"false","false","60c47bdfde98f62c0f688ae3","649333f3a54f0d623a537f0c","649334b34abc04b432b59807","Negative","Positive","UP",0
"","","","","","moving-image",175,735179,"0.0-5.6-0.153-0.153",2937,"","","LEFT",1500,2.8,1000,0.833333333333334,5.03333333333333,"a","true","a",1000,2497,2937,440,"false","false","60c47bdfde98f62c0f688ae3","649333f3a54f0d623a537f0c","649334b34abc04b432b59807","Negative","Positive","ACCELERATING",1
"","","","","","moving-image",176,737924,"0.0-5.6-0.154-0.154",2238,"","","DOWN",1000,-1.06666,1000,4.93333,3.86667,"d","false","a",1002,2000,2238,238,"false","false","60c47bdfde98f62c0f688ae3","649333f3a54f0d623a537f0c","649334b34abc04b432b59807","Negative","Positive","DOWN",1
"","","","","","moving-image",177,740942,"0.0-5.6-0.155-0.155",2510,"","","LEFT",1000,0,1000,4.4,4.4,"d","false","a",1001,2002,2510,508,"false","false","60c47bdfde98f62c0f688ae3","649333f3a54f0d623a537f0c","649334b34abc04b432b59807","Negative","Positive","ACCELERATING",1
"","","","","","moving-image",178,744528,"0.0-5.6-0.156-0.156",3077,"","","UP",1500,1.4,1000,1.88333333333333,3.98333333333333,"a","false","d",1000,2497,3077,580,"false","false","60c47bdfde98f62c0f688ae3","649333f3a54f0d623a537f0c","649334b34abc04b432b59807","Negative","Positive","UP",0
"","","","","","moving-image",179,747738,"0.0-5.6-0.157-0.157",2701,"","","RIGHT",1000,-3.2,1000,6,2.8,"d","false","a",1002,1986,2701,715,"false","false","60c47bdfde98f62c0f688ae3","649333f3a54f0d623a537f0c","649334b34abc04b432b59807","Negative","Positive","DECELERATING",1
"","","","","","moving-image",180,752178,"0.0-5.6-0.158-0.158",3930,"","","UP",1500,0.7,1000,2.40833333333333,3.45833333333333,"a","false","d",1001,2496,3930,1434,"false","false","60c47bdfde98f62c0f688ae3","649333f3a54f0d623a537f0c","649334b34abc04b432b59807","Negative","Positive","UP",0
"","","","","","moving-image",181,755880,"0.0-5.6-0.159-0.159",3193,"","","RIGHT",1500,-1.06666,1000,3.73332833333333,2.13333833333333,"d","true","d",1002,2498,3194,696,"false","false","60c47bdfde98f62c0f688ae3","649333f3a54f0d623a537f0c","649334b34abc04b432b59807","Negative","Positive","DECELERATING",0
"","","","","","moving-image",182,758803,"0.0-5.6-0.160-0.160",2412,"","","DOWN",1000,-3.2,1000,6,2.8,"d","false","a",1002,2001,2412,411,"false","false","60c47bdfde98f62c0f688ae3","649333f3a54f0d623a537f0c","649334b34abc04b432b59807","Negative","Positive","DOWN",1
"","","","","","moving-image",183,762280,"0.0-5.6-0.161-0.161",2968,"","","RIGHT",1500,-1.4,1000,3.98333333333333,1.88333333333333,"d","true","d",1002,2482,2969,487,"false","false","60c47bdfde98f62c0f688ae3","649333f3a54f0d623a537f0c","649334b34abc04b432b59807","Negative","Positive","DECELERATING",0
"","","","","","moving-image",184,765950,"0.0-5.6-0.162-0.162",3163,"","","DOWN",1500,3.54,1000,0.278333333333333,5.58833333333333,"a","true","a",1000,2496,3163,667,"false","false","60c47bdfde98f62c0f688ae3","649333f3a54f0d623a537f0c","649334b34abc04b432b59807","Negative","Positive","DOWN",1
"","","","","","moving-image",185,769574,"0.0-5.6-0.163-0.163",3114,"","","LEFT",1500,-0.7,1000,3.45833333333333,2.40833333333333,"d","true","d",1001,2497,3114,617,"false","false","60c47bdfde98f62c0f688ae3","649333f3a54f0d623a537f0c","649334b34abc04b432b59807","Negative","Positive","ACCELERATING",0
"","","","","","moving-image",186,773190,"0.0-5.6-0.164-0.164",3106,"","","UP",1500,-1.4,1000,3.98333333333333,1.88333333333333,"d","true","d",1001,2481,3106,625,"false","false","60c47bdfde98f62c0f688ae3","649333f3a54f0d623a537f0c","649334b34abc04b432b59807","Negative","Positive","UP",0
"","","","","","moving-image",187,776324,"0.0-5.6-0.165-0.165",2627,"","","RIGHT",1000,3.2,1000,2.8,6,"a","true","a",1000,2000,2626,626,"false","false","60c47bdfde98f62c0f688ae3","649333f3a54f0d623a537f0c","649334b34abc04b432b59807","Negative","Positive","DECELERATING",1
"","","","","","moving-image",188,779323,"0.0-5.6-0.166-0.166",2491,"","","DOWN",1000,-1.6,1000,5.2,3.6,"d","false","a",1000,2001,2491,490,"false","false","60c47bdfde98f62c0f688ae3","649333f3a54f0d623a537f0c","649334b34abc04b432b59807","Negative","Positive","DOWN",1
"","","","","","moving-image",189,783199,"0.0-5.6-0.167-0.167",3367,"","","LEFT",1500,1.4,1000,1.88333333333333,3.98333333333333,"a","true","a",1001,2496,3366,870,"false","false","60c47bdfde98f62c0f688ae3","649333f3a54f0d623a537f0c","649334b34abc04b432b59807","Negative","Positive","ACCELERATING",1
"","","","","","moving-image",190,786728,"0.0-5.6-0.168-0.168",3021,"","","DOWN",1500,-0.7,1000,3.45833333333333,2.40833333333333,"d","true","d",1003,2497,3021,524,"false","false","60c47bdfde98f62c0f688ae3","649333f3a54f0d623a537f0c","649334b34abc04b432b59807","Negative","Positive","DOWN",0
"","","","","","moving-image",191,790374,"0.0-5.6-0.169-0.169",3135,"","","RIGHT",1500,-2.1,1000,4.50833333333333,1.35833333333333,"d","true","d",1001,2482,3135,653,"false","false","60c47bdfde98f62c0f688ae3","649333f3a54f0d623a537f0c","649334b34abc04b432b59807","Negative","Positive","DECELERATING",0
"","","","","","moving-image",192,793316,"0.0-5.6-0.170-0.170",2435,"","","DOWN",1000,1.06666,1000,3.86667,4.93333,"a","true","a",1001,2000,2434,434,"false","false","60c47bdfde98f62c0f688ae3","649333f3a54f0d623a537f0c","649334b34abc04b432b59807","Negative","Positive","DOWN",1
"","","","","","moving-image",193,796149,"0.0-5.6-0.171-0.171",2322,"","","LEFT",1000,1.6,1000,3.6,5.2,"a","true","a",1001,2002,2322,320,"false","false","60c47bdfde98f62c0f688ae3","649333f3a54f0d623a537f0c","649334b34abc04b432b59807","Negative","Positive","ACCELERATING",1
"","","","","","moving-image",194,798988,"0.0-5.6-0.172-0.172",2331,"","","UP",1000,-1.06666,1000,4.93333,3.86667,"d","false","a",1002,2000,2330,330,"false","false","60c47bdfde98f62c0f688ae3","649333f3a54f0d623a537f0c","649334b34abc04b432b59807","Negative","Positive","UP",1
"","","","","","moving-image",195,802297,"0.0-5.6-0.173-0.173",2799,"","","LEFT",1500,0,1000,2.93333333333333,2.93333333333333,"d","true","d",1001,2497,2799,302,"false","false","60c47bdfde98f62c0f688ae3","649333f3a54f0d623a537f0c","649334b34abc04b432b59807","Negative","Positive","ACCELERATING",0
"","","","","","moving-image",196,805581,"0.0-5.6-0.174-0.174",2775,"","","DOWN",1500,0.7,1000,2.40833333333333,3.45833333333333,"a","false","d",1001,2497,2775,278,"false","false","60c47bdfde98f62c0f688ae3","649333f3a54f0d623a537f0c","649334b34abc04b432b59807","Negative","Positive","DOWN",0
"","","","","","moving-image",198,812259,"0.0-5.7-0.175-0.175",2327,"","","RIGHT",1000,-3.2,1000,6,2.8,"d","true","d",1000,2002,2327,325,"false","false","60c47bdfde98f62c0f688ae3","649333f3a54f0d623a537f0c","649334b34abc04b432b59807","Negative","Positive","DECELERATING",0
"","","","","","moving-image",199,815187,"0.0-5.7-0.176-0.176",2419,"","","UP",1000,0,1000,4.4,4.4,"d","false","a",1000,2001,2419,418,"false","false","60c47bdfde98f62c0f688ae3","649333f3a54f0d623a537f0c","649334b34abc04b432b59807","Negative","Positive","UP",1
"","","","","","moving-image",200,818286,"0.0-5.7-0.177-0.177",2589,"","","RIGHT",1500,-3.54,1000,5.58833333333333,0.278333333333333,"d","true","d",1001,2416,2589,173,"false","false","60c47bdfde98f62c0f688ae3","649333f3a54f0d623a537f0c","649334b34abc04b432b59807","Negative","Positive","DECELERATING",0
"","","","","","moving-image",201,821662,"0.0-5.7-0.178-0.178",2868,"","","DOWN",1500,-0.7,1000,3.45833333333333,2.40833333333333,"d","true","d",1001,2496,2868,372,"false","false","60c47bdfde98f62c0f688ae3","649333f3a54f0d623a537f0c","649334b34abc04b432b59807","Negative","Positive","DOWN",0
"","","","","","moving-image",202,825053,"0.0-5.7-0.179-0.179",2881,"","","LEFT",1500,-1.06666,1000,3.73332833333333,2.13333833333333,"d","true","d",1001,2497,2881,384,"false","false","60c47bdfde98f62c0f688ae3","649333f3a54f0d623a537f0c","649334b34abc04b432b59807","Negative","Positive","ACCELERATING",0
"","","","","","moving-image",203,827859,"0.0-5.7-0.180-0.180",2296,"","","UP",1000,-1.06666,1000,4.93333,3.86667,"d","false","a",1000,2000,2296,296,"false","false","60c47bdfde98f62c0f688ae3","649333f3a54f0d623a537f0c","649334b34abc04b432b59807","Negative","Positive","UP",1
"","","","","","moving-image",205,834741,"0.0-5.7-0.182-0.182",3394,"","","UP",1500,1.06666,1000,2.13333833333333,3.73332833333333,"a","false","d",1000,2496,3394,898,"false","false","60c47bdfde98f62c0f688ae3","649333f3a54f0d623a537f0c","649334b34abc04b432b59807","Negative","Positive","UP",0
"","","","","","moving-image",206,838031,"0.0-5.7-0.183-0.183",2781,"","","LEFT",1500,-3.54,1000,5.58833333333333,0.278333333333333,"d","true","d",1001,2419,2781,362,"false","false","60c47bdfde98f62c0f688ae3","649333f3a54f0d623a537f0c","649334b34abc04b432b59807","Negative","Positive","ACCELERATING",0
"","","","","","moving-image",207,841743,"0.0-5.7-0.184-0.184",3202,"","","DOWN",1000,-1.06666,1000,4.93333,3.86667,"d","false","a",1002,2002,3203,1201,"false","false","60c47bdfde98f62c0f688ae3","649333f3a54f0d623a537f0c","649334b34abc04b432b59807","Negative","Positive","DOWN",1
"","","","","","moving-image",208,845405,"0.0-5.7-0.185-0.185",3152,"","","RIGHT",1500,-1.4,1000,3.98333333333333,1.88333333333333,"d","true","d",1001,2481,3153,672,"false","false","60c47bdfde98f62c0f688ae3","649333f3a54f0d623a537f0c","649334b34abc04b432b59807","Negative","Positive","DECELERATING",0
"","","","","","moving-image",209,848417,"0.0-5.7-0.186-0.186",2504,"","","UP",1000,1.06666,1000,3.86667,4.93333,"a","true","a",1000,2001,2503,502,"false","false","60c47bdfde98f62c0f688ae3","649333f3a54f0d623a537f0c","649334b34abc04b432b59807","Negative","Positive","UP",1
"","","","","","moving-image",210,852135,"0.0-5.7-0.187-0.187",3208,"","","RIGHT",1500,2.1,1000,1.35833333333333,4.50833333333333,"a","true","a",1001,2498,3208,710,"false","false","60c47bdfde98f62c0f688ae3","649333f3a54f0d623a537f0c","649334b34abc04b432b59807","Negative","Positive","DECELERATING",1
"","","","","","moving-image",211,854931,"0.0-5.7-0.188-0.188",2289,"","","DOWN",1000,-1.6,1000,5.2,3.6,"d","false","a",1001,2001,2289,288,"false","false","60c47bdfde98f62c0f688ae3","649333f3a54f0d623a537f0c","649334b34abc04b432b59807","Negative","Positive","DOWN",1
"","","","","","moving-image",212,858428,"0.0-5.7-0.189-0.189",2986,"","","LEFT",1500,2.1,1000,1.35833333333333,4.50833333333333,"a","true","a",1001,2498,2986,488,"false","false","60c47bdfde98f62c0f688ae3","649333f3a54f0d623a537f0c","649334b34abc04b432b59807","Negative","Positive","ACCELERATING",1
"","","","","","moving-image",213,862024,"0.0-5.7-0.190-0.190",3086,"","","UP",1500,3.54,1000,0.278333333333333,5.58833333333333,"a","true","a",1001,2496,3086,590,"false","false","60c47bdfde98f62c0f688ae3","649333f3a54f0d623a537f0c","649334b34abc04b432b59807","Negative","Positive","UP",1
"","","","","","moving-image",215,867871,"0.0-5.7-0.192-0.192",2535,"","","DOWN",1500,-1.4,1000,3.98333333333333,1.88333333333333,"d","true","d",1001,2480,2535,55,"false","false","60c47bdfde98f62c0f688ae3","649333f3a54f0d623a537f0c","649334b34abc04b432b59807","Negative","Positive","DOWN",0
"","","","","","moving-image",216,871172,"0.0-5.7-0.193-0.193",2791,"","","RIGHT",1000,0,1000,4.4,4.4,"d","false","a",1000,2000,2791,791,"false","false","60c47bdfde98f62c0f688ae3","649333f3a54f0d623a537f0c","649334b34abc04b432b59807","Negative","Positive","DECELERATING",1
"","","","","","moving-image",217,874068,"0.0-5.7-0.194-0.194",2387,"","","DOWN",1000,0,1000,4.4,4.4,"d","false","a",1000,2002,2387,385,"false","false","60c47bdfde98f62c0f688ae3","649333f3a54f0d623a537f0c","649334b34abc04b432b59807","Negative","Positive","DOWN",1
"","","","","","moving-image",218,877689,"0.0-5.7-0.195-0.195",3112,"","","RIGHT",1500,1.06666,1000,2.13333833333333,3.73332833333333,"a","false","d",1000,2498,3111,613,"false","false","60c47bdfde98f62c0f688ae3","649333f3a54f0d623a537f0c","649334b34abc04b432b59807","Negative","Positive","DECELERATING",0
"","","","","","moving-image",219,880926,"0.0-5.7-0.196-0.196",2726,"","","UP",1500,-3.54,1000,5.58833333333333,0.278333333333333,"d","true","d",1001,2416,2725,309,"false","false","60c47bdfde98f62c0f688ae3","649333f3a54f0d623a537f0c","649334b34abc04b432b59807","Negative","Positive","UP",0
"","","","","","moving-image",220,884060,"0.0-5.7-0.197-0.197",2623,"","","LEFT",1000,1.6,1000,3.6,5.2,"a","true","a",1001,2001,2624,623,"false","false","60c47bdfde98f62c0f688ae3","649333f3a54f0d623a537f0c","649334b34abc04b432b59807","Negative","Positive","ACCELERATING",1
"","","","","","moving-image",222,890374,"0.0-5.7-0.199-0.199",2714,"","","RIGHT",1500,-2.8,1000,5.03333333333333,0.833333333333334,"d","true","d",1001,2465,2714,249,"false","false","60c47bdfde98f62c0f688ae3","649333f3a54f0d623a537f0c","649334b34abc04b432b59807","Negative","Positive","DECELERATING",0
"","","","","","moving-image",3,16663,"0.0-3.0-0.0",3719,"","","UP",1000,-1.6,1000,5.2,3.6,"d","false","a",1000,2000,3719,1719,"true","false","5f4c86e663c40a89e84fe15c","649333f3a54f0d623a537f0c","649339d81c1c10bfae34db71","Positive","Negative","UP",1
"","","","","","moving-image",5,26457,"0.0-3.2-0.2",3701,"","","DOWN",1500,1.4,1000,1.88333333333333,3.98333333333333,"a","false","d",1000,2497,3701,1204,"true","false","5f4c86e663c40a89e84fe15c","649333f3a54f0d623a537f0c","649339d81c1c10bfae34db71","Positive","Negative","DOWN",0
"","","","","","moving-image",7,34201,"0.0-3.4-0.4",2733,"","","UP",1500,0,1000,2.93333333333333,2.93333333333333,"d","true","d",1000,2498,2733,235,"true","false","5f4c86e663c40a89e84fe15c","649333f3a54f0d623a537f0c","649339d81c1c10bfae34db71","Positive","Negative","UP",0
"","","","","","moving-image",8,40118,"0.0-3.5-0.5",4415,"","","RIGHT",1500,0,1000,2.93333333333333,2.93333333333333,"d","true","d",1001,2497,4414,1917,"true","false","5f4c86e663c40a89e84fe15c","649333f3a54f0d623a537f0c","649339d81c1c10bfae34db71","Positive","Negative","ACCELERATING",0
"","","","","","moving-image",9,44454,"0.0-3.6-0.6",2834,"","","UP",1000,1.6,1000,3.6,5.2,"a","true","a",1000,2000,2833,833,"true","false","5f4c86e663c40a89e84fe15c","649333f3a54f0d623a537f0c","649339d81c1c10bfae34db71","Positive","Negative","UP",1
"","","","","","moving-image",10,48821,"0.0-3.7-0.7",2865,"","","LEFT",1000,0,1000,4.4,4.4,"d","true","d",1001,2001,2865,864,"true","false","5f4c86e663c40a89e84fe15c","649333f3a54f0d623a537f0c","649339d81c1c10bfae34db71","Positive","Negative","DECELERATING",0
"","","","","","moving-image",11,53212,"0.0-3.8-0.8",2889,"","","UP",1000,1.6,1000,3.6,5.2,"a","false","d",1001,2001,2888,887,"true","false","5f4c86e663c40a89e84fe15c","649333f3a54f0d623a537f0c","649339d81c1c10bfae34db71","Positive","Negative","UP",0
"","","","","","moving-image",13,62305,"0.0-3.10-0.10",2609,"","","UP",1500,0.7,1000,2.40833333333333,3.45833333333333,"a","false","d",1002,2498,2609,111,"true","false","5f4c86e663c40a89e84fe15c","649333f3a54f0d623a537f0c","649339d81c1c10bfae34db71","Positive","Negative","UP",0
"","","","","","moving-image",16,77560,"0.0-5.0-0.0-0.0",2818,"","","DOWN",1500,-1.4,1000,3.98333333333333,1.88333333333333,"d","true","d",1000,2481,2818,337,"false","false","5f4c86e663c40a89e84fe15c","649333f3a54f0d623a537f0c","649339d81c1c10bfae34db71","Positive","Negative","DOWN",0
"","","","","","moving-image",18,84923,"0.0-5.0-0.2-0.2",3953,"","","DOWN",1500,-2.1,1000,4.50833333333333,1.35833333333333,"d","true","d",1000,2480,3952,1472,"false","false","5f4c86e663c40a89e84fe15c","649333f3a54f0d623a537f0c","649339d81c1c10bfae34db71","Positive","Negative","DOWN",0
"","","","","","moving-image",19,87830,"0.0-5.0-0.3-0.3",2406,"","","RIGHT",1000,3.2,1000,2.8,6,"a","true","a",1000,2001,2406,405,"false","false","5f4c86e663c40a89e84fe15c","649333f3a54f0d623a537f0c","649339d81c1c10bfae34db71","Positive","Negative","ACCELERATING",1
"","","","","","moving-image",20,91640,"0.0-5.0-0.4-0.4",3309,"","","DOWN",1500,0,1000,2.93333333333333,2.93333333333333,"d","false","a",1001,2497,3309,812,"false","false","5f4c86e663c40a89e84fe15c","649333f3a54f0d623a537f0c","649339d81c1c10bfae34db71","Positive","Negative","DOWN",1
"","","","","","moving-image",22,97846,"0.0-5.0-0.6-0.6",2785,"","","DOWN",1500,0.7,1000,2.40833333333333,3.45833333333333,"a","false","d",1000,2497,2785,288,"false","false","5f4c86e663c40a89e84fe15c","649333f3a54f0d623a537f0c","649339d81c1c10bfae34db71","Positive","Negative","DOWN",0
"","","","","","moving-image",24,104116,"0.0-5.0-0.8-0.8",2807,"","","DOWN",1500,-3.54,1000,5.58833333333333,0.278333333333333,"d","true","d",1001,2416,2807,391,"false","false","5f4c86e663c40a89e84fe15c","649333f3a54f0d623a537f0c","649339d81c1c10bfae34db71","Positive","Negative","DOWN",0
"","","","","","moving-image",25,107367,"0.0-5.0-0.9-0.9",2750,"","","LEFT",1500,-3.54,1000,5.58833333333333,0.278333333333333,"d","true","d",1001,2416,2750,334,"false","false","5f4c86e663c40a89e84fe15c","649333f3a54f0d623a537f0c","649339d81c1c10bfae34db71","Positive","Negative","DECELERATING",0
"","","","","","moving-image",26,110832,"0.0-5.0-0.10-0.10",2962,"","","UP",1500,2.1,1000,1.35833333333333,4.50833333333333,"a","true","a",1002,2497,2962,465,"false","false","5f4c86e663c40a89e84fe15c","649333f3a54f0d623a537f0c","649339d81c1c10bfae34db71","Positive","Negative","UP",1
"","","","","","moving-image",28,117983,"0.0-5.0-0.12-0.12",3655,"","","UP",1500,-1.4,1000,3.98333333333333,1.88333333333333,"d","false","a",1000,2481,3655,1174,"false","false","5f4c86e663c40a89e84fe15c","649333f3a54f0d623a537f0c","649339d81c1c10bfae34db71","Positive","Negative","UP",1
"","","","","","moving-image",29,121436,"0.0-5.0-0.13-0.13",2952,"","","RIGHT",1500,1.4,1000,1.88333333333333,3.98333333333333,"a","true","a",1001,2498,2952,454,"false","false","5f4c86e663c40a89e84fe15c","649333f3a54f0d623a537f0c","649339d81c1c10bfae34db71","Positive","Negative","ACCELERATING",1
"","","","","","moving-image",30,124890,"0.0-5.0-0.14-0.14",2953,"","","UP",1500,1.06666,1000,2.13333833333333,3.73332833333333,"a","true","a",1001,2497,2953,456,"false","false","5f4c86e663c40a89e84fe15c","649333f3a54f0d623a537f0c","649339d81c1c10bfae34db71","Positive","Negative","UP",1
"","","","","","moving-image",32,131353,"0.0-5.0-0.16-0.16",3187,"","","UP",1500,3.54,1000,0.278333333333333,5.58833333333333,"a","true","a",1000,2496,3187,691,"false","false","5f4c86e663c40a89e84fe15c","649333f3a54f0d623a537f0c","649339d81c1c10bfae34db71","Positive","Negative","UP",1
"","","","","","moving-image",33,135678,"0.0-5.0-0.17-0.17",3824,"","","LEFT",1000,-1.6,1000,5.2,3.6,"d","true","d",1001,2001,3824,1823,"false","false","5f4c86e663c40a89e84fe15c","649333f3a54f0d623a537f0c","649339d81c1c10bfae34db71","Positive","Negative","DECELERATING",0
"","","","","","moving-image",34,138732,"0.0-5.0-0.18-0.18",2552,"","","DOWN",1000,-1.06666,1000,4.93333,3.86667,"d","false","a",1001,2001,2553,552,"false","false","5f4c86e663c40a89e84fe15c","649333f3a54f0d623a537f0c","649339d81c1c10bfae34db71","Positive","Negative","DOWN",1
"","","","","","moving-image",35,141622,"0.0-5.0-0.19-0.19",2387,"","","LEFT",1000,1.6,1000,3.6,5.2,"a","true","a",1001,2001,2387,386,"false","false","5f4c86e663c40a89e84fe15c","649333f3a54f0d623a537f0c","649339d81c1c10bfae34db71","Positive","Negative","DECELERATING",1
"","","","","","moving-image",36,144718,"0.0-5.0-0.20-0.20",2594,"","","UP",1500,0.7,1000,2.40833333333333,3.45833333333333,"a","false","d",1001,2496,2594,98,"false","false","5f4c86e663c40a89e84fe15c","649333f3a54f0d623a537f0c","649339d81c1c10bfae34db71","Positive","Negative","UP",0
"","","","","","moving-image",37,149599,"0.0-5.0-0.21-0.21",4381,"","","LEFT",1000,1.06666,1000,3.86667,4.93333,"a","true","a",1000,2000,4380,2380,"false","false","5f4c86e663c40a89e84fe15c","649333f3a54f0d623a537f0c","649339d81c1c10bfae34db71","Positive","Negative","DECELERATING",1
"","","","","","moving-image",38,152887,"0.0-5.0-0.22-0.22",2786,"","","DOWN",1000,-1.6,1000,5.2,3.6,"d","false","a",1000,2000,2786,786,"false","false","5f4c86e663c40a89e84fe15c","649333f3a54f0d623a537f0c","649339d81c1c10bfae34db71","Positive","Negative","DOWN",1
"","","","","","moving-image",39,156945,"0.0-5.0-0.23-0.23",3555,"","","LEFT",1500,-1.4,1000,3.98333333333333,1.88333333333333,"d","true","d",1000,2480,3555,1075,"false","false","5f4c86e663c40a89e84fe15c","649333f3a54f0d623a537f0c","649339d81c1c10bfae34db71","Positive","Negative","DECELERATING",0
"","","","","","moving-image",40,160144,"0.0-5.0-0.24-0.24",2697,"","","DOWN",1000,0,1000,4.4,4.4,"d","false","a",1000,2000,2697,697,"false","false","5f4c86e663c40a89e84fe15c","649333f3a54f0d623a537f0c","649339d81c1c10bfae34db71","Positive","Negative","DOWN",1
"","","","","","moving-image",42,166475,"0.0-5.1-0.25-0.25",2786,"","","LEFT",1500,2.1,1000,1.35833333333333,4.50833333333333,"a","true","a",1000,2496,2786,290,"false","false","5f4c86e663c40a89e84fe15c","649333f3a54f0d623a537f0c","649339d81c1c10bfae34db71","Positive","Negative","DECELERATING",1
"","","","","","moving-image",43,170240,"0.0-5.1-0.26-0.26",3264,"","","UP",1500,-1.4,1000,3.98333333333333,1.88333333333333,"d","true","d",1001,2481,3264,783,"false","false","5f4c86e663c40a89e84fe15c","649333f3a54f0d623a537f0c","649339d81c1c10bfae34db71","Positive","Negative","UP",0
"","","","","","moving-image",44,174042,"0.0-5.1-0.27-0.27",3299,"","","LEFT",1500,-2.8,1000,5.03333333333333,0.833333333333334,"d","true","d",1001,2464,3299,835,"false","false","5f4c86e663c40a89e84fe15c","649333f3a54f0d623a537f0c","649339d81c1c10bfae34db71","Positive","Negative","DECELERATING",0
"","","","","","moving-image",45,177320,"0.0-5.1-0.28-0.28",2776,"","","DOWN",1000,-1.06666,1000,4.93333,3.86667,"d","false","a",1001,2001,2776,775,"false","false","5f4c86e663c40a89e84fe15c","649333f3a54f0d623a537f0c","649339d81c1c10bfae34db71","Positive","Negative","DOWN",1
"","","","","","moving-image",46,181421,"0.0-5.1-0.29-0.29",3600,"","","RIGHT",1500,0,1000,2.93333333333333,2.93333333333333,"d","true","d",1000,2496,3600,1104,"false","false","5f4c86e663c40a89e84fe15c","649333f3a54f0d623a537f0c","649339d81c1c10bfae34db71","Positive","Negative","ACCELERATING",0
"","","","","","moving-image",47,185723,"0.0-5.1-0.30-0.30",3800,"","","UP",1500,1.06666,1000,2.13333833333333,3.73332833333333,"a","false","d",1001,2496,3800,1304,"false","false","5f4c86e663c40a89e84fe15c","649333f3a54f0d623a537f0c","649339d81c1c10bfae34db71","Positive","Negative","UP",0
"","","","","","moving-image",48,189411,"0.0-5.1-0.31-0.31",3186,"","","RIGHT",1500,1.4,1000,1.88333333333333,3.98333333333333,"a","false","d",1000,2497,3186,689,"false","false","5f4c86e663c40a89e84fe15c","649333f3a54f0d623a537f0c","649339d81c1c10bfae34db71","Positive","Negative","ACCELERATING",0
"","","","","","moving-image",49,192543,"0.0-5.1-0.32-0.32",2631,"","","UP",1000,-1.06666,1000,4.93333,3.86667,"d","false","a",1001,2000,2630,630,"false","false","5f4c86e663c40a89e84fe15c","649333f3a54f0d623a537f0c","649339d81c1c10bfae34db71","Positive","Negative","UP",1
"","","","","","moving-image",50,195931,"0.0-5.1-0.33-0.33",2886,"","","RIGHT",1500,1.06666,1000,2.13333833333333,3.73332833333333,"a","false","d",1000,2496,2886,390,"false","false","5f4c86e663c40a89e84fe15c","649333f3a54f0d623a537f0c","649339d81c1c10bfae34db71","Positive","Negative","ACCELERATING",0
"","","","","","moving-image",51,200701,"0.0-5.1-0.34-0.34",4268,"","","UP",1500,-0.7,1000,3.45833333333333,2.40833333333333,"d","true","d",1000,2496,4268,1772,"false","false","5f4c86e663c40a89e84fe15c","649333f3a54f0d623a537f0c","649339d81c1c10bfae34db71","Positive","Negative","UP",0
"","","","","","moving-image",52,204290,"0.0-5.1-0.35-0.35",3088,"","","LEFT",1000,-3.2,1000,6,2.8,"d","true","d",1001,2000,3087,1087,"false","false","5f4c86e663c40a89e84fe15c","649333f3a54f0d623a537f0c","649339d81c1c10bfae34db71","Positive","Negative","DECELERATING",0
"","","","","","moving-image",53,207712,"0.0-5.1-0.36-0.36",2919,"","","DOWN",1500,3.54,1000,0.278333333333333,5.58833333333333,"a","true","a",1000,2496,2919,423,"false","false","5f4c86e663c40a89e84fe15c","649333f3a54f0d623a537f0c","649339d81c1c10bfae34db71","Positive","Negative","DOWN",1
"","","","","","moving-image",54,211798,"0.0-5.1-0.37-0.37",3584,"","","RIGHT",1000,-1.06666,1000,4.93333,3.86667,"d","true","d",1000,2000,3584,1584,"false","false","5f4c86e663c40a89e84fe15c","649333f3a54f0d623a537f0c","649339d81c1c10bfae34db71","Positive","Negative","ACCELERATING",0
"","","","","","moving-image",55,214995,"0.0-5.1-0.38-0.38",2696,"","","DOWN",1500,0.7,1000,2.40833333333333,3.45833333333333,"a","true","a",1000,2496,2695,199,"false","false","5f4c86e663c40a89e84fe15c","649333f3a54f0d623a537f0c","649339d81c1c10bfae34db71","Positive","Negative","DOWN",1
"","","","","","moving-image",56,218216,"0.0-5.1-0.39-0.39",2719,"","","RIGHT",1000,3.2,1000,2.8,6,"a","true","a",1001,2000,2719,719,"false","false","5f4c86e663c40a89e84fe15c","649333f3a54f0d623a537f0c","649339d81c1c10bfae34db71","Positive","Negative","ACCELERATING",1
"","","","","","moving-image",57,222429,"0.0-5.1-0.40-0.40",3710,"","","UP",1000,-3.2,1000,6,2.8,"d","false","a",1001,2001,3710,1709,"false","false","5f4c86e663c40a89e84fe15c","649333f3a54f0d623a537f0c","649339d81c1c10bfae34db71","Positive","Negative","UP",1
"","","","","","moving-image",58,225560,"0.0-5.1-0.41-0.41",2629,"","","RIGHT",1000,1.06666,1000,3.86667,4.93333,"a","true","a",1000,2000,2629,629,"false","false","5f4c86e663c40a89e84fe15c","649333f3a54f0d623a537f0c","649339d81c1c10bfae34db71","Positive","Negative","ACCELERATING",1
"","","","","","moving-image",59,228623,"0.0-5.1-0.42-0.42",2561,"","","UP",1000,1.06666,1000,3.86667,4.93333,"a","true","a",1001,2001,2562,561,"false","false","5f4c86e663c40a89e84fe15c","649333f3a54f0d623a537f0c","649339d81c1c10bfae34db71","Positive","Negative","UP",1
"","","","","","moving-image",61,235187,"0.0-5.1-0.44-0.44",2987,"","","UP",1500,-3.54,1000,5.58833333333333,0.278333333333333,"d","true","d",1001,2417,2988,571,"false","false","5f4c86e663c40a89e84fe15c","649333f3a54f0d623a537f0c","649339d81c1c10bfae34db71","Positive","Negative","UP",0
"","","","","","moving-image",62,238732,"0.0-5.1-0.45-0.45",3042,"","","RIGHT",1500,2.8,1000,0.833333333333334,5.03333333333333,"a","false","d",1001,2497,3042,545,"false","false","5f4c86e663c40a89e84fe15c","649333f3a54f0d623a537f0c","649339d81c1c10bfae34db71","Positive","Negative","ACCELERATING",0
"","","","","","moving-image",63,241907,"0.0-5.1-0.46-0.46",2674,"","","DOWN",1500,-1.06666,1000,3.73332833333333,2.13333833333333,"d","true","d",1000,2496,2673,177,"false","false","5f4c86e663c40a89e84fe15c","649333f3a54f0d623a537f0c","649339d81c1c10bfae34db71","Positive","Negative","DOWN",0
"","","","","","moving-image",64,245798,"0.0-5.1-0.47-0.47",3389,"","","RIGHT",1500,2.8,1000,0.833333333333334,5.03333333333333,"a","false","d",1000,2497,3389,892,"false","false","5f4c86e663c40a89e84fe15c","649333f3a54f0d623a537f0c","649339d81c1c10bfae34db71","Positive","Negative","ACCELERATING",0
"","","","","","moving-image",65,249865,"0.0-5.1-0.48-0.48",3566,"","","UP",1500,2.8,1000,0.833333333333334,5.03333333333333,"a","false","d",1000,2496,3565,1069,"false","false","5f4c86e663c40a89e84fe15c","649333f3a54f0d623a537f0c","649339d81c1c10bfae34db71","Positive","Negative","UP",0
"","","","","","moving-image",66,252975,"0.0-5.1-0.49-0.49",2608,"","","LEFT",1000,0,1000,4.4,4.4,"d","true","d",1000,2001,2608,607,"false","false","5f4c86e663c40a89e84fe15c","649333f3a54f0d623a537f0c","649339d81c1c10bfae34db71","Positive","Negative","DECELERATING",0
"","","","","","moving-image",69,329124,"0.0-5.2-0.51-0.51",2650,"","","LEFT",1500,0,1000,2.93333333333333,2.93333333333333,"d","true","d",1000,2496,2649,153,"false","false","5f4c86e663c40a89e84fe15c","649333f3a54f0d623a537f0c","649339d81c1c10bfae34db71","Positive","Negative","DECELERATING",0
"","","","","","moving-image",70,332544,"0.0-5.2-0.52-0.52",2917,"","","DOWN",1500,3.54,1000,0.278333333333333,5.58833333333333,"a","true","a",1001,2497,2917,420,"false","false","5f4c86e663c40a89e84fe15c","649333f3a54f0d623a537f0c","649339d81c1c10bfae34db71","Positive","Negative","DOWN",1
"","","","","","moving-image",71,335185,"0.0-5.2-0.53-0.53",2138,"","","RIGHT",1000,-1.6,1000,5.2,3.6,"d","true","d",1000,2000,2137,137,"false","false","5f4c86e663c40a89e84fe15c","649333f3a54f0d623a537f0c","649339d81c1c10bfae34db71","Positive","Negative","ACCELERATING",0
"","","","","","moving-image",72,339974,"0.0-5.2-0.54-0.54",4287,"","","DOWN",1500,1.06666,1000,2.13333833333333,3.73332833333333,"a","false","d",1001,2497,4288,1791,"false","false","5f4c86e663c40a89e84fe15c","649333f3a54f0d623a537f0c","649339d81c1c10bfae34db71","Positive","Negative","DOWN",0
"","","","","","moving-image",74,347758,"0.0-5.2-0.56-0.56",4420,"","","UP",1000,-1.06666,1000,4.93333,3.86667,"d","false","a",1000,2000,4419,2419,"false","false","5f4c86e663c40a89e84fe15c","649333f3a54f0d623a537f0c","649339d81c1c10bfae34db71","Positive","Negative","UP",1
"","","","","","moving-image",75,350934,"0.0-5.2-0.57-0.57",2673,"","","RIGHT",1000,3.2,1000,2.8,6,"a","true","a",1000,2000,2673,673,"false","false","5f4c86e663c40a89e84fe15c","649333f3a54f0d623a537f0c","649339d81c1c10bfae34db71","Positive","Negative","ACCELERATING",1
"","","","","","moving-image",76,354922,"0.0-5.2-0.58-0.58",3486,"","","DOWN",1500,-0.7,1000,3.45833333333333,2.40833333333333,"d","true","d",1000,2496,3485,989,"false","false","5f4c86e663c40a89e84fe15c","649333f3a54f0d623a537f0c","649339d81c1c10bfae34db71","Positive","Negative","DOWN",0
"","","","","","moving-image",78,362373,"0.0-5.2-0.60-0.60",2706,"","","UP",1000,-1.6,1000,5.2,3.6,"d","false","a",1001,2000,2706,706,"false","false","5f4c86e663c40a89e84fe15c","649333f3a54f0d623a537f0c","649339d81c1c10bfae34db71","Positive","Negative","UP",1
"","","","","","moving-image",79,366026,"0.0-5.2-0.61-0.61",3150,"","","RIGHT",1500,3.54,1000,0.278333333333333,5.58833333333333,"a","false","d",1000,2497,3150,653,"false","false","5f4c86e663c40a89e84fe15c","649333f3a54f0d623a537f0c","649339d81c1c10bfae34db71","Positive","Negative","ACCELERATING",0
"","","","","","moving-image",80,369667,"0.0-5.2-0.62-0.62",3139,"","","DOWN",1500,-2.1,1000,4.50833333333333,1.35833333333333,"d","true","d",1001,2480,3139,659,"false","false","5f4c86e663c40a89e84fe15c","649333f3a54f0d623a537f0c","649339d81c1c10bfae34db71","Positive","Negative","DOWN",0
"","","","","","moving-image",81,372631,"0.0-5.2-0.63-0.63",2462,"","","LEFT",1000,3.2,1000,2.8,6,"a","true","a",1001,2000,2462,462,"false","false","5f4c86e663c40a89e84fe15c","649333f3a54f0d623a537f0c","649339d81c1c10bfae34db71","Positive","Negative","DECELERATING",1
"","","","","","moving-image",82,376141,"0.0-5.2-0.64-0.64",3006,"","","DOWN",1500,-1.4,1000,3.98333333333333,1.88333333333333,"d","true","d",1000,2480,3007,527,"false","false","5f4c86e663c40a89e84fe15c","649333f3a54f0d623a537f0c","649339d81c1c10bfae34db71","Positive","Negative","DOWN",0
"","","","","","moving-image",83,379460,"0.0-5.2-0.65-0.65",2816,"","","LEFT",1000,-1.6,1000,5.2,3.6,"d","false","a",1001,2002,2816,814,"false","false","5f4c86e663c40a89e84fe15c","649333f3a54f0d623a537f0c","649339d81c1c10bfae34db71","Positive","Negative","DECELERATING",1
"","","","","","moving-image",84,382435,"0.0-5.2-0.66-0.66",2472,"","","DOWN",1000,1.06666,1000,3.86667,4.93333,"a","true","a",1000,2001,2473,472,"false","false","5f4c86e663c40a89e84fe15c","649333f3a54f0d623a537f0c","649339d81c1c10bfae34db71","Positive","Negative","DOWN",1
"","","","","","moving-image",85,385555,"0.0-5.2-0.67-0.67",2617,"","","LEFT",1500,-3.54,1000,5.58833333333333,0.278333333333333,"d","true","d",1001,2417,2617,200,"false","false","5f4c86e663c40a89e84fe15c","649333f3a54f0d623a537f0c","649339d81c1c10bfae34db71","Positive","Negative","DECELERATING",0
"","","","","","moving-image",86,388541,"0.0-5.2-0.68-0.68",2483,"","","UP",1500,-3.54,1000,5.58833333333333,0.278333333333333,"d","true","d",1001,2416,2483,67,"false","false","5f4c86e663c40a89e84fe15c","649333f3a54f0d623a537f0c","649339d81c1c10bfae34db71","Positive","Negative","UP",0
"","","","","","moving-image",87,391829,"0.0-5.2-0.69-0.69",2784,"","","LEFT",1000,-1.06666,1000,4.93333,3.86667,"d","true","d",1000,2001,2784,783,"false","false","5f4c86e663c40a89e84fe15c","649333f3a54f0d623a537f0c","649339d81c1c10bfae34db71","Positive","Negative","DECELERATING",0
"","","","","","moving-image",88,396285,"0.0-5.2-0.70-0.70",3953,"","","DOWN",1500,1.4,1000,1.88333333333333,3.98333333333333,"a","false","d",1001,2497,3953,1456,"false","false","5f4c86e663c40a89e84fe15c","649333f3a54f0d623a537f0c","649339d81c1c10bfae34db71","Positive","Negative","DOWN",0
"","","","","","moving-image",89,400040,"0.0-5.2-0.71-0.71",3253,"","","RIGHT",1000,1.6,1000,3.6,5.2,"a","false","d",1001,2001,3253,1252,"false","false","5f4c86e663c40a89e84fe15c","649333f3a54f0d623a537f0c","649339d81c1c10bfae34db71","Positive","Negative","ACCELERATING",0
"","","","","","moving-image",90,403126,"0.0-5.2-0.72-0.72",2585,"","","UP",1500,-2.1,1000,4.50833333333333,1.35833333333333,"d","true","d",1001,2482,2585,103,"false","false","5f4c86e663c40a89e84fe15c","649333f3a54f0d623a537f0c","649339d81c1c10bfae34db71","Positive","Negative","UP",0
"","","","","","moving-image",91,405777,"0.0-5.2-0.73-0.73",2149,"","","RIGHT",1000,1.6,1000,3.6,5.2,"a","false","d",1001,2001,2149,148,"false","false","5f4c86e663c40a89e84fe15c","649333f3a54f0d623a537f0c","649339d81c1c10bfae34db71","Positive","Negative","ACCELERATING",0
"","","","","","moving-image",92,408876,"0.0-5.2-0.74-0.74",2596,"","","UP",1500,3.54,1000,0.278333333333333,5.58833333333333,"a","true","a",1002,2497,2596,99,"false","false","5f4c86e663c40a89e84fe15c","649333f3a54f0d623a537f0c","649339d81c1c10bfae34db71","Positive","Negative","UP",1
"","","","","","moving-image",94,413397,"0.0-5.3-0.75-0.75",2505,"","","LEFT",1500,-0.7,1000,3.45833333333333,2.40833333333333,"d","true","d",1001,2497,2505,8,"false","false","5f4c86e663c40a89e84fe15c","649333f3a54f0d623a537f0c","649339d81c1c10bfae34db71","Positive","Negative","DECELERATING",0
"","","","","","moving-image",95,416083,"0.0-5.3-0.76-0.76",2183,"","","UP",1000,0,1000,4.4,4.4,"d","false","a",1001,2000,2183,183,"false","false","5f4c86e663c40a89e84fe15c","649333f3a54f0d623a537f0c","649339d81c1c10bfae34db71","Positive","Negative","UP",1
"","","","","","moving-image",96,418757,"0.0-5.3-0.77-0.77",2171,"","","RIGHT",1000,0,1000,4.4,4.4,"d","true","d",1001,2001,2172,171,"false","false","5f4c86e663c40a89e84fe15c","649333f3a54f0d623a537f0c","649339d81c1c10bfae34db71","Positive","Negative","ACCELERATING",0
"","","","","","moving-image",97,422064,"0.0-5.3-0.78-0.78",2804,"","","DOWN",1500,0.7,1000,2.40833333333333,3.45833333333333,"a","false","d",1001,2497,2804,307,"false","false","5f4c86e663c40a89e84fe15c","649333f3a54f0d623a537f0c","649339d81c1c10bfae34db71","Positive","Negative","DOWN",0
"","","","","","moving-image",98,428858,"0.0-5.3-0.79-0.79",6291,"","","LEFT",1500,-2.8,1000,5.03333333333333,0.833333333333334,"d","true","d",1000,2464,6291,3827,"false","false","5f4c86e663c40a89e84fe15c","649333f3a54f0d623a537f0c","649339d81c1c10bfae34db71","Positive","Negative","DECELERATING",0
"","","","","","moving-image",99,431853,"0.0-5.3-0.80-0.80",2492,"","","DOWN",1500,-1.4,1000,3.98333333333333,1.88333333333333,"d","true","d",1001,2481,2492,11,"false","false","5f4c86e663c40a89e84fe15c","649333f3a54f0d623a537f0c","649339d81c1c10bfae34db71","Positive","Negative","DOWN",0
"","","","","","moving-image",100,434450,"0.0-5.3-0.81-0.81",2093,"","","RIGHT",1000,-1.06666,1000,4.93333,3.86667,"d","true","d",1001,2001,2094,93,"false","false","5f4c86e663c40a89e84fe15c","649333f3a54f0d623a537f0c","649339d81c1c10bfae34db71","Positive","Negative","ACCELERATING",0
"","","","","","moving-image",101,437290,"0.0-5.3-0.82-0.82",2337,"","","DOWN",1000,1.6,1000,3.6,5.2,"a","true","a",1002,2000,2337,337,"false","false","5f4c86e663c40a89e84fe15c","649333f3a54f0d623a537f0c","649339d81c1c10bfae34db71","Positive","Negative","DOWN",1
"","","","","","moving-image",102,440342,"0.0-5.3-0.83-0.83",2549,"","","RIGHT",1500,-1.06666,1000,3.73332833333333,2.13333833333333,"d","true","d",1001,2496,2548,52,"false","false","5f4c86e663c40a89e84fe15c","649333f3a54f0d623a537f0c","649339d81c1c10bfae34db71","Positive","Negative","ACCELERATING",0
"","","","","","moving-image",103,442949,"0.0-5.3-0.84-0.84",2105,"","","UP",1000,0,1000,4.4,4.4,"d","false","a",999,1999,2104,105,"false","false","5f4c86e663c40a89e84fe15c","649333f3a54f0d623a537f0c","649339d81c1c10bfae34db71","Positive","Negative","UP",1
"","","","","","moving-image",104,446091,"0.0-5.3-0.85-0.85",2639,"","","LEFT",1500,-1.06666,1000,3.73332833333333,2.13333833333333,"d","true","d",1001,2497,2639,142,"false","false","5f4c86e663c40a89e84fe15c","649333f3a54f0d623a537f0c","649339d81c1c10bfae34db71","Positive","Negative","DECELERATING",0
"","","","","","moving-image",105,449767,"0.0-5.3-0.86-0.86",3174,"","","UP",1500,-1.06666,1000,3.73332833333333,2.13333833333333,"d","true","d",1002,2497,3174,677,"false","false","5f4c86e663c40a89e84fe15c","649333f3a54f0d623a537f0c","649339d81c1c10bfae34db71","Positive","Negative","UP",0
"","","","","","moving-image",106,452374,"0.0-5.3-0.87-0.87",2104,"","","LEFT",1000,-3.2,1000,6,2.8,"d","true","d",1001,2001,2104,103,"false","false","5f4c86e663c40a89e84fe15c","649333f3a54f0d623a537f0c","649339d81c1c10bfae34db71","Positive","Negative","DECELERATING",0
"","","","","","moving-image",107,455716,"0.0-5.3-0.88-0.88",2839,"","","UP",1500,-0.7,1000,3.45833333333333,2.40833333333333,"d","true","d",1001,2496,2839,343,"false","false","5f4c86e663c40a89e84fe15c","649333f3a54f0d623a537f0c","649339d81c1c10bfae34db71","Positive","Negative","UP",0
"","","","","","moving-image",108,458812,"0.0-5.3-0.89-0.89",2593,"","","LEFT",1500,-0.7,1000,3.45833333333333,2.40833333333333,"d","true","d",1001,2496,2594,98,"false","false","5f4c86e663c40a89e84fe15c","649333f3a54f0d623a537f0c","649339d81c1c10bfae34db71","Positive","Negative","DECELERATING",0
"","","","","","moving-image",110,464183,"0.0-5.3-0.91-0.91",2016,"","","RIGHT",1000,-3.2,1000,6,2.8,"d","true","d",1000,2001,2016,15,"false","false","5f4c86e663c40a89e84fe15c","649333f3a54f0d623a537f0c","649339d81c1c10bfae34db71","Positive","Negative","ACCELERATING",0
"","","","","","moving-image",112,470175,"0.0-5.3-0.93-0.93",2272,"","","RIGHT",1000,3.2,1000,2.8,6,"a","true","a",1001,2000,2272,272,"false","false","5f4c86e663c40a89e84fe15c","649333f3a54f0d623a537f0c","649339d81c1c10bfae34db71","Positive","Negative","ACCELERATING",1
"","","","","","moving-image",113,474084,"0.0-5.3-0.94-0.94",3406,"","","UP",1500,1.4,1000,1.88333333333333,3.98333333333333,"a","false","d",1000,2496,3407,911,"false","false","5f4c86e663c40a89e84fe15c","649333f3a54f0d623a537f0c","649339d81c1c10bfae34db71","Positive","Negative","UP",0
"","","","","","moving-image",115,480600,"0.0-5.3-0.96-0.96",3394,"","","DOWN",1500,1.06666,1000,2.13333833333333,3.73332833333333,"a","false","d",1000,2497,3394,897,"false","false","5f4c86e663c40a89e84fe15c","649333f3a54f0d623a537f0c","649339d81c1c10bfae34db71","Positive","Negative","DOWN",0
"","","","","","moving-image",116,483695,"0.0-5.3-0.97-0.97",2593,"","","LEFT",1500,1.4,1000,1.88333333333333,3.98333333333333,"a","false","d",1001,2496,2593,97,"false","false","5f4c86e663c40a89e84fe15c","649333f3a54f0d623a537f0c","649339d81c1c10bfae34db71","Positive","Negative","DECELERATING",0
"","","","","","moving-image",117,487549,"0.0-5.3-0.98-0.98",3351,"","","UP",1500,-1.06666,1000,3.73332833333333,2.13333833333333,"d","true","d",1000,2497,3351,854,"false","false","5f4c86e663c40a89e84fe15c","649333f3a54f0d623a537f0c","649339d81c1c10bfae34db71","Positive","Negative","UP",0
"","","","","","moving-image",118,490434,"0.0-5.3-0.99-0.99",2382,"","","LEFT",1000,-1.6,1000,5.2,3.6,"d","true","d",1000,2000,2381,381,"false","false","5f4c86e663c40a89e84fe15c","649333f3a54f0d623a537f0c","649339d81c1c10bfae34db71","Positive","Negative","DECELERATING",0
"","","","","","moving-image",120,493985,"0.0-5.4-0.100-0.100",2048,"","","DOWN",1000,-3.2,1000,6,2.8,"d","false","a",1001,2001,2048,47,"false","false","5f4c86e663c40a89e84fe15c","649333f3a54f0d623a537f0c","649339d81c1c10bfae34db71","Positive","Negative","DOWN",1
"","","","","","moving-image",121,497005,"0.0-5.4-0.101-0.101",2517,"","","LEFT",1500,-2.1,1000,4.50833333333333,1.35833333333333,"d","true","d",1000,2482,2516,34,"false","false","5f4c86e663c40a89e84fe15c","649333f3a54f0d623a537f0c","649339d81c1c10bfae34db71","Positive","Negative","DECELERATING",0
"","","","","","moving-image",122,499947,"0.0-5.4-0.102-0.102",2439,"","","DOWN",1500,-3.54,1000,5.58833333333333,0.278333333333333,"d","true","d",1001,2418,2439,21,"false","false","5f4c86e663c40a89e84fe15c","649333f3a54f0d623a537f0c","649339d81c1c10bfae34db71","Positive","Negative","DOWN",0
"","","","","","moving-image",123,503019,"0.0-5.4-0.103-0.103",2569,"","","RIGHT",1500,-3.54,1000,5.58833333333333,0.278333333333333,"d","true","d",1000,2417,2568,151,"false","false","5f4c86e663c40a89e84fe15c","649333f3a54f0d623a537f0c","649339d81c1c10bfae34db71","Positive","Negative","ACCELERATING",0
"","","","","","moving-image",125,508656,"0.0-5.4-0.105-0.105",2593,"","","LEFT",1500,-2.8,1000,5.03333333333333,0.833333333333334,"d","true","d",1001,2464,2593,129,"false","false","5f4c86e663c40a89e84fe15c","649333f3a54f0d623a537f0c","649339d81c1c10bfae34db71","Positive","Negative","DECELERATING",0
"","","","","","moving-image",126,511785,"0.0-5.4-0.106-0.106",2627,"","","UP",1500,-0.7,1000,3.45833333333333,2.40833333333333,"d","true","d",1000,2496,2626,130,"false","false","5f4c86e663c40a89e84fe15c","649333f3a54f0d623a537f0c","649339d81c1c10bfae34db71","Positive","Negative","UP",0
"","","","","","moving-image",127,514814,"0.0-5.4-0.107-0.107",2526,"","","LEFT",1500,-1.4,1000,3.98333333333333,1.88333333333333,"d","true","d",1000,2480,2525,45,"false","false","5f4c86e663c40a89e84fe15c","649333f3a54f0d623a537f0c","649339d81c1c10bfae34db71","Positive","Negative","DECELERATING",0
"","","","","","moving-image",128,517698,"0.0-5.4-0.108-0.108",2381,"","","DOWN",1000,1.06666,1000,3.86667,4.93333,"a","true","a",1000,2000,2381,381,"false","false","5f4c86e663c40a89e84fe15c","649333f3a54f0d623a537f0c","649339d81c1c10bfae34db71","Positive","Negative","DOWN",1
"","","","","","moving-image",129,520362,"0.0-5.4-0.109-0.109",2160,"","","RIGHT",1000,3.2,1000,2.8,6,"a","true","a",1001,2000,2160,160,"false","false","5f4c86e663c40a89e84fe15c","649333f3a54f0d623a537f0c","649339d81c1c10bfae34db71","Positive","Negative","ACCELERATING",1
"","","","","","moving-image",131,526530,"0.0-5.4-0.111-0.111",2927,"","","RIGHT",1500,2.1,1000,1.35833333333333,4.50833333333333,"a","true","a",1001,2497,2928,431,"false","false","5f4c86e663c40a89e84fe15c","649333f3a54f0d623a537f0c","649339d81c1c10bfae34db71","Positive","Negative","ACCELERATING",1
"","","","","","moving-image",132,529069,"0.0-5.4-0.112-0.112",2036,"","","UP",1000,0,1000,4.4,4.4,"d","false","a",1000,2001,2035,34,"false","false","5f4c86e663c40a89e84fe15c","649333f3a54f0d623a537f0c","649339d81c1c10bfae34db71","Positive","Negative","UP",1
"","","","","","moving-image",133,533837,"0.0-5.4-0.113-0.113",4264,"","","RIGHT",1500,2.8,1000,0.833333333333334,5.03333333333333,"a","true","a",1000,2497,4264,1767,"false","false","5f4c86e663c40a89e84fe15c","649333f3a54f0d623a537f0c","649339d81c1c10bfae34db71","Positive","Negative","ACCELERATING",1
"","","","","","moving-image",134,537055,"0.0-5.4-0.114-0.114",2714,"","","DOWN",1000,0,1000,4.4,4.4,"d","false","a",1000,2000,2714,714,"false","false","5f4c86e663c40a89e84fe15c","649333f3a54f0d623a537f0c","649339d81c1c10bfae34db71","Positive","Negative","DOWN",1
"","","","","","moving-image",135,540061,"0.0-5.4-0.115-0.115",2504,"","","RIGHT",1500,-0.7,1000,3.45833333333333,2.40833333333333,"d","true","d",1001,2496,2504,8,"false","false","5f4c86e663c40a89e84fe15c","649333f3a54f0d623a537f0c","649339d81c1c10bfae34db71","Positive","Negative","ACCELERATING",0
"","","","","","moving-image",136,542702,"0.0-5.4-0.116-0.116",2137,"","","UP",1000,3.2,1000,2.8,6,"a","true","a",1000,2001,2136,135,"false","false","5f4c86e663c40a89e84fe15c","649333f3a54f0d623a537f0c","649339d81c1c10bfae34db71","Positive","Negative","UP",1
"","","","","","moving-image",137,546120,"0.0-5.4-0.117-0.117",2916,"","","RIGHT",1500,-1.4,1000,3.98333333333333,1.88333333333333,"d","true","d",1001,2481,2916,435,"false","false","5f4c86e663c40a89e84fe15c","649333f3a54f0d623a537f0c","649339d81c1c10bfae34db71","Positive","Negative","ACCELERATING",0
"","","","","","moving-image",139,552824,"0.0-5.4-0.119-0.119",3105,"","","RIGHT",1500,3.54,1000,0.278333333333333,5.58833333333333,"a","true","a",1000,2496,3104,608,"false","false","5f4c86e663c40a89e84fe15c","649333f3a54f0d623a537f0c","649339d81c1c10bfae34db71","Positive","Negative","ACCELERATING",1
"","","","","","moving-image",140,555965,"0.0-5.4-0.120-0.120",2638,"","","DOWN",1500,-1.06666,1000,3.73332833333333,2.13333833333333,"d","true","d",1001,2496,2637,141,"false","false","5f4c86e663c40a89e84fe15c","649333f3a54f0d623a537f0c","649339d81c1c10bfae34db71","Positive","Negative","DOWN",0
"","","","","","moving-image",141,559317,"0.0-5.4-0.121-0.121",2849,"","","LEFT",1500,-2.1,1000,4.50833333333333,1.35833333333333,"d","true","d",1000,2481,2848,367,"false","false","5f4c86e663c40a89e84fe15c","649333f3a54f0d623a537f0c","649339d81c1c10bfae34db71","Positive","Negative","DECELERATING",0
"","","","","","moving-image",142,563138,"0.0-5.4-0.122-0.122",3316,"","","UP",1500,1.4,1000,1.88333333333333,3.98333333333333,"a","true","a",1001,2497,3317,820,"false","false","5f4c86e663c40a89e84fe15c","649333f3a54f0d623a537f0c","649339d81c1c10bfae34db71","Positive","Negative","UP",1
"","","","","","moving-image",143,566757,"0.0-5.4-0.123-0.123",3117,"","","LEFT",1000,-1.6,1000,5.2,3.6,"d","false","a",1001,2001,3117,1116,"false","false","5f4c86e663c40a89e84fe15c","649333f3a54f0d623a537f0c","649339d81c1c10bfae34db71","Positive","Negative","DECELERATING",1
"","","","","","moving-image",144,571681,"0.0-5.4-0.124-0.124",4420,"","","DOWN",1500,1.06666,1000,2.13333833333333,3.73332833333333,"a","true","a",1000,2496,4420,1924,"false","false","5f4c86e663c40a89e84fe15c","649333f3a54f0d623a537f0c","649339d81c1c10bfae34db71","Positive","Negative","DOWN",1
"","","","","","moving-image",146,575892,"0.0-5.5-0.125-0.125",2662,"","","RIGHT",1000,1.6,1000,3.6,5.2,"a","true","a",1000,2001,2662,661,"false","false","5f4c86e663c40a89e84fe15c","649333f3a54f0d623a537f0c","649339d81c1c10bfae34db71","Positive","Negative","ACCELERATING",1
"","","","","","moving-image",147,579513,"0.0-5.5-0.126-0.126",3117,"","","UP",1000,-1.06666,1000,4.93333,3.86667,"d","false","a",1001,2001,3118,1117,"false","false","5f4c86e663c40a89e84fe15c","649333f3a54f0d623a537f0c","649339d81c1c10bfae34db71","Positive","Negative","UP",1
"","","","","","moving-image",148,584472,"0.0-5.5-0.127-0.127",4456,"","","LEFT",1500,-3.54,1000,5.58833333333333,0.278333333333333,"d","false","a",1000,2416,4456,2040,"false","false","5f4c86e663c40a89e84fe15c","649333f3a54f0d623a537f0c","649339d81c1c10bfae34db71","Positive","Negative","DECELERATING",1
"","","","","","moving-image",149,587893,"0.0-5.5-0.128-0.128",2918,"","","UP",1500,0,1000,2.93333333333333,2.93333333333333,"d","false","a",1001,2497,2918,421,"false","false","5f4c86e663c40a89e84fe15c","649333f3a54f0d623a537f0c","649339d81c1c10bfae34db71","Positive","Negative","UP",1
"","","","","","moving-image",151,593565,"0.0-5.5-0.130-0.130",2662,"","","DOWN",1500,1.4,1000,1.88333333333333,3.98333333333333,"a","true","a",1002,2497,2663,166,"false","false","5f4c86e663c40a89e84fe15c","649333f3a54f0d623a537f0c","649339d81c1c10bfae34db71","Positive","Negative","DOWN",1
"","","","","","moving-image",152,596896,"0.0-5.5-0.131-0.131",2828,"","","RIGHT",1500,2.8,1000,0.833333333333334,5.03333333333333,"a","true","a",1000,2497,2828,331,"false","false","5f4c86e663c40a89e84fe15c","649333f3a54f0d623a537f0c","649339d81c1c10bfae34db71","Positive","Negative","ACCELERATING",1
"","","","","","moving-image",153,600361,"0.0-5.5-0.132-0.132",2961,"","","DOWN",1500,2.1,1000,1.35833333333333,4.50833333333333,"a","false","d",1001,2497,2961,464,"false","false","5f4c86e663c40a89e84fe15c","649333f3a54f0d623a537f0c","649339d81c1c10bfae34db71","Positive","Negative","DOWN",0
"","","","","","moving-image",154,603658,"0.0-5.5-0.133-0.133",2793,"","","RIGHT",1500,2.1,1000,1.35833333333333,4.50833333333333,"a","true","a",1002,2497,2794,297,"false","false","5f4c86e663c40a89e84fe15c","649333f3a54f0d623a537f0c","649339d81c1c10bfae34db71","Positive","Negative","ACCELERATING",1
"","","","","","moving-image",155,608315,"0.0-5.5-0.134-0.134",4154,"","","UP",1500,0.7,1000,2.40833333333333,3.45833333333333,"a","false","d",1001,2497,4154,1657,"false","false","5f4c86e663c40a89e84fe15c","649333f3a54f0d623a537f0c","649339d81c1c10bfae34db71","Positive","Negative","UP",0
"","","","","","moving-image",156,611958,"0.0-5.5-0.135-0.135",3140,"","","LEFT",1000,-3.2,1000,6,2.8,"d","true","d",1001,1986,3140,1154,"false","false","5f4c86e663c40a89e84fe15c","649333f3a54f0d623a537f0c","649339d81c1c10bfae34db71","Positive","Negative","DECELERATING",0
"","","","","","moving-image",158,617883,"0.0-5.5-0.137-0.137",2527,"","","LEFT",1500,-2.8,1000,5.03333333333333,0.833333333333334,"d","true","d",1001,2464,2526,62,"false","false","5f4c86e663c40a89e84fe15c","649333f3a54f0d623a537f0c","649339d81c1c10bfae34db71","Positive","Negative","DECELERATING",0
"","","","","","moving-image",159,621348,"0.0-5.5-0.138-0.138",2962,"","","UP",1500,0.7,1000,2.40833333333333,3.45833333333333,"a","false","d",1001,2497,2962,465,"false","false","5f4c86e663c40a89e84fe15c","649333f3a54f0d623a537f0c","649339d81c1c10bfae34db71","Positive","Negative","UP",0
"","","","","","moving-image",160,624422,"0.0-5.5-0.139-0.139",2571,"","","RIGHT",1500,-0.7,1000,3.45833333333333,2.40833333333333,"d","true","d",1000,2496,2571,75,"false","false","5f4c86e663c40a89e84fe15c","649333f3a54f0d623a537f0c","649339d81c1c10bfae34db71","Positive","Negative","ACCELERATING",0
"","","","","","moving-image",161,628032,"0.0-5.5-0.140-0.140",3106,"","","DOWN",1000,-1.06666,1000,4.93333,3.86667,"d","false","a",1001,2001,3106,1105,"false","false","5f4c86e663c40a89e84fe15c","649333f3a54f0d623a537f0c","649339d81c1c10bfae34db71","Positive","Negative","DOWN",1
"","","","","","moving-image",162,633868,"0.0-5.5-0.141-0.141",5334,"","","LEFT",1000,1.06666,1000,3.86667,4.93333,"a","true","a",1001,2000,5333,3333,"false","false","5f4c86e663c40a89e84fe15c","649333f3a54f0d623a537f0c","649339d81c1c10bfae34db71","Positive","Negative","DECELERATING",1
"","","","","","moving-image",163,637420,"0.0-5.5-0.142-0.142",3049,"","","UP",1000,1.06666,1000,3.86667,4.93333,"a","true","a",1001,2001,3049,1048,"false","false","5f4c86e663c40a89e84fe15c","649333f3a54f0d623a537f0c","649339d81c1c10bfae34db71","Positive","Negative","UP",1
"","","","","","moving-image",164,641330,"0.0-5.5-0.143-0.143",3406,"","","RIGHT",1500,0.7,1000,2.40833333333333,3.45833333333333,"a","true","a",1002,2497,3406,909,"false","false","5f4c86e663c40a89e84fe15c","649333f3a54f0d623a537f0c","649339d81c1c10bfae34db71","Positive","Negative","ACCELERATING",1
"","","","","","moving-image",165,644627,"0.0-5.5-0.144-0.144",2793,"","","UP",1500,-2.1,1000,4.50833333333333,1.35833333333333,"d","false","a",1000,2481,2793,312,"false","false","5f4c86e663c40a89e84fe15c","649333f3a54f0d623a537f0c","649339d81c1c10bfae34db71","Positive","Negative","UP",1
"","","","","","moving-image",166,648048,"0.0-5.5-0.145-0.145",2917,"","","RIGHT",1000,0,1000,4.4,4.4,"d","false","a",1001,2001,2918,917,"false","false","5f4c86e663c40a89e84fe15c","649333f3a54f0d623a537f0c","649339d81c1c10bfae34db71","Positive","Negative","ACCELERATING",1
"","","","","","moving-image",167,653182,"0.0-5.5-0.146-0.146",4630,"","","DOWN",1500,-0.7,1000,3.45833333333333,2.40833333333333,"d","false","a",1001,2497,4630,2133,"false","false","5f4c86e663c40a89e84fe15c","649333f3a54f0d623a537f0c","649339d81c1c10bfae34db71","Positive","Negative","DOWN",1
"","","","","","moving-image",168,656534,"0.0-5.5-0.147-0.147",2849,"","","LEFT",1500,3.54,1000,0.278333333333333,5.58833333333333,"a","true","a",1000,2497,2849,352,"false","false","5f4c86e663c40a89e84fe15c","649333f3a54f0d623a537f0c","649339d81c1c10bfae34db71","Positive","Negative","DECELERATING",1
"","","","","","moving-image",169,659942,"0.0-5.5-0.148-0.148",2904,"","","DOWN",1500,2.8,1000,0.833333333333334,5.03333333333333,"a","true","a",1000,2497,2905,408,"false","false","5f4c86e663c40a89e84fe15c","649333f3a54f0d623a537f0c","649339d81c1c10bfae34db71","Positive","Negative","DOWN",1
"","","","","","moving-image",170,662671,"0.0-5.5-0.149-0.149",2225,"","","LEFT",1000,-3.2,1000,6,2.8,"d","false","a",1000,2000,2225,225,"false","false","5f4c86e663c40a89e84fe15c","649333f3a54f0d623a537f0c","649339d81c1c10bfae34db71","Positive","Negative","DECELERATING",1
"","","","","","moving-image",172,666926,"0.0-5.6-0.150-0.150",2884,"","","DOWN",1500,-2.8,1000,5.03333333333333,0.833333333333334,"d","true","d",1000,2465,2883,418,"false","false","5f4c86e663c40a89e84fe15c","649333f3a54f0d623a537f0c","649339d81c1c10bfae34db71","Positive","Negative","DOWN",0
"","","","","","moving-image",173,671751,"0.0-5.6-0.151-0.151",4321,"","","LEFT",1500,2.8,1000,0.833333333333334,5.03333333333333,"a","true","a",1001,2497,4322,1825,"false","false","5f4c86e663c40a89e84fe15c","649333f3a54f0d623a537f0c","649339d81c1c10bfae34db71","Positive","Negative","DECELERATING",1
"","","","","","moving-image",174,676385,"0.0-5.6-0.152-0.152",4129,"","","DOWN",1500,2.1,1000,1.35833333333333,4.50833333333333,"a","true","a",1000,2497,4129,1632,"false","false","5f4c86e663c40a89e84fe15c","649333f3a54f0d623a537f0c","649339d81c1c10bfae34db71","Positive","Negative","DOWN",1
"","","","","","moving-image",175,680049,"0.0-5.6-0.153-0.153",3160,"","","RIGHT",1500,1.06666,1000,2.13333833333333,3.73332833333333,"a","false","d",1001,2497,3160,663,"false","false","5f4c86e663c40a89e84fe15c","649333f3a54f0d623a537f0c","649339d81c1c10bfae34db71","Positive","Negative","ACCELERATING",0
"","","","","","moving-image",176,684161,"0.0-5.6-0.154-0.154",3609,"","","DOWN",1500,0,1000,2.93333333333333,2.93333333333333,"d","false","a",1000,2497,3608,1111,"false","false","5f4c86e663c40a89e84fe15c","649333f3a54f0d623a537f0c","649339d81c1c10bfae34db71","Positive","Negative","DOWN",1
"","","","","","moving-image",177,687246,"0.0-5.6-0.155-0.155",2581,"","","RIGHT",1500,-2.1,1000,4.50833333333333,1.35833333333333,"d","true","d",1001,2481,2581,100,"false","false","5f4c86e663c40a89e84fe15c","649333f3a54f0d623a537f0c","649339d81c1c10bfae34db71","Positive","Negative","ACCELERATING",0
"","","","","","moving-image",178,689942,"0.0-5.6-0.156-0.156",2192,"","","DOWN",1000,1.06666,1000,3.86667,4.93333,"a","true","a",1000,2001,2192,191,"false","false","5f4c86e663c40a89e84fe15c","649333f3a54f0d623a537f0c","649339d81c1c10bfae34db71","Positive","Negative","DOWN",1
"","","","","","moving-image",179,693551,"0.0-5.6-0.157-0.157",3105,"","","LEFT",1500,0,1000,2.93333333333333,2.93333333333333,"d","false","a",1001,2497,3105,608,"false","false","5f4c86e663c40a89e84fe15c","649333f3a54f0d623a537f0c","649339d81c1c10bfae34db71","Positive","Negative","DECELERATING",1
"","","","","","moving-image",180,696625,"0.0-5.6-0.158-0.158",2571,"","","UP",1500,-2.8,1000,5.03333333333333,0.833333333333334,"d","true","d",1001,2464,2571,107,"false","false","5f4c86e663c40a89e84fe15c","649333f3a54f0d623a537f0c","649339d81c1c10bfae34db71","Positive","Negative","UP",0
"","","","","","moving-image",181,699577,"0.0-5.6-0.159-0.159",2449,"","","LEFT",1000,-3.2,1000,6,2.8,"d","true","d",1001,2000,2449,449,"false","false","5f4c86e663c40a89e84fe15c","649333f3a54f0d623a537f0c","649339d81c1c10bfae34db71","Positive","Negative","DECELERATING",0
"","","","","","moving-image",184,707296,"0.0-5.6-0.162-0.162",2137,"","","DOWN",1000,1.6,1000,3.6,5.2,"a","true","a",1001,2000,2136,136,"false","false","5f4c86e663c40a89e84fe15c","649333f3a54f0d623a537f0c","649339d81c1c10bfae34db71","Positive","Negative","DOWN",1
"","","","","","moving-image",185,710415,"0.0-5.6-0.163-0.163",2615,"","","RIGHT",1500,-2.8,1000,5.03333333333333,0.833333333333334,"d","true","d",1000,2464,2615,151,"false","false","5f4c86e663c40a89e84fe15c","649333f3a54f0d623a537f0c","649339d81c1c10bfae34db71","Positive","Negative","ACCELERATING",0
"","","","","","moving-image",186,714971,"0.0-5.6-0.164-0.164",4052,"","","DOWN",1500,0,1000,2.93333333333333,2.93333333333333,"d","true","d",1001,2497,4052,1555,"false","false","5f4c86e663c40a89e84fe15c","649333f3a54f0d623a537f0c","649339d81c1c10bfae34db71","Positive","Negative","DOWN",0
"","","","","","moving-image",187,718202,"0.0-5.6-0.165-0.165",2727,"","","RIGHT",1500,2.1,1000,1.35833333333333,4.50833333333333,"a","true","a",1000,2497,2727,230,"false","false","5f4c86e663c40a89e84fe15c","649333f3a54f0d623a537f0c","649339d81c1c10bfae34db71","Positive","Negative","ACCELERATING",1
"","","","","","moving-image",188,721356,"0.0-5.6-0.166-0.166",2650,"","","UP",1500,2.1,1000,1.35833333333333,4.50833333333333,"a","true","a",1000,2497,2650,153,"false","false","5f4c86e663c40a89e84fe15c","649333f3a54f0d623a537f0c","649339d81c1c10bfae34db71","Positive","Negative","UP",1
"","","","","","moving-image",189,724409,"0.0-5.6-0.167-0.167",2549,"","","LEFT",1500,0.7,1000,2.40833333333333,3.45833333333333,"a","true","a",1001,2496,2549,53,"false","false","5f4c86e663c40a89e84fe15c","649333f3a54f0d623a537f0c","649339d81c1c10bfae34db71","Positive","Negative","DECELERATING",1
"","","","","","moving-image",190,727484,"0.0-5.6-0.168-0.168",2571,"","","UP",1500,-0.7,1000,3.45833333333333,2.40833333333333,"d","true","d",1001,2497,2571,74,"false","false","5f4c86e663c40a89e84fe15c","649333f3a54f0d623a537f0c","649339d81c1c10bfae34db71","Positive","Negative","UP",0
"","","","","","moving-image",191,730602,"0.0-5.6-0.169-0.169",2615,"","","LEFT",1500,-2.1,1000,4.50833333333333,1.35833333333333,"d","true","d",1001,2480,2615,135,"false","false","5f4c86e663c40a89e84fe15c","649333f3a54f0d623a537f0c","649339d81c1c10bfae34db71","Positive","Negative","DECELERATING",0
"","","","","","moving-image",192,734280,"0.0-5.6-0.170-0.170",3174,"","","DOWN",1000,0,1000,4.4,4.4,"d","false","a",1001,2001,3174,1173,"false","false","5f4c86e663c40a89e84fe15c","649333f3a54f0d623a537f0c","649339d81c1c10bfae34db71","Positive","Negative","DOWN",1
"","","","","","moving-image",193,737555,"0.0-5.6-0.171-0.171",2771,"","","LEFT",1500,1.06666,1000,2.13333833333333,3.73332833333333,"a","true","a",1000,2496,2771,275,"false","false","5f4c86e663c40a89e84fe15c","649333f3a54f0d623a537f0c","649339d81c1c10bfae34db71","Positive","Negative","DECELERATING",1
